width,height,webaudio,browser,browser_version,mobile,os,fullscreen,vsync_rate,webcam,microphone,trial_type,trial_index,time_elapsed,internal_node_id,run_id,condition,recorded_at,source_code_version,ip,user_agent,device,platform,platform_version,referer,accept_language,jspsych-survey-multi-choice-response-0,subject_id,pid,PROLIFIC_PID,screen_width,screen_height,connection_score,importance_score,biodiversity_belief,marital_status,gender,dwelling,adults,children,education,income,occupation,remarks,success,timeout,failed_images,failed_audio,failed_video,rt,stimulus,response,slider_start,question_order,choice,task,left_imgConfig,right_imgConfig,left_imgStr,right_imgStr,left_imgPrune,right_imgPrune,left_configuration,right_configuration,left_structure,right_structure,left_pruning,right_pruning,left_time,right_time,left_rent,right_rent,left_size,right_size,valid,STUDY_ID,SESSION_ID
1536,695,true,Chrome,141.0.0.0,false,Windows 10,true,60.67,true,true,browser-check,0,994,0.0-0.0,10,1,2025-10-31 15:13:50,380adedbb17a93fac604e03de424270a,90.77.128.47,"Mozilla/5.0 (Windows NT 10.0; Win64; x64) AppleWebKit/537.36 (KHTML, like Gecko) Chrome/141.0.0.0 Safari/537.36",WebKit,Windows,10.0,https://pmnk2gty5u.cognition.run/?jspsych-survey-multi-choice-response-0=S%C3%AD,"es-ES,es;q=0.9,en;q=0.8",Sí,,euaqPUeECPKM,,1536,695,0,53,Sí,Soltero/a,Mujer,Apartamento o piso,2 personas,Ninguna,Educación secundaria,2001€ - 2500€,Trabajo a tiempo completo,,,,,,,,,,,,,,,,,,,,,,,,,,,,,,,,
,,,Chrome,141.0.0.0,,,,,,,preload,1,1068,0.0-1.0,10,1,2025-10-31 15:13:50,380adedbb17a93fac604e03de424270a,90.77.128.47,"Mozilla/5.0 (Windows NT 10.0; Win64; x64) AppleWebKit/537.36 (KHTML, like Gecko) Chrome/141.0.0.0 Safari/537.36",WebKit,Windows,10.0,https://pmnk2gty5u.cognition.run/?jspsych-survey-multi-choice-response-0=S%C3%AD,"es-ES,es;q=0.9,en;q=0.8",Sí,,euaqPUeECPKM,,1536,695,0,53,Sí,Soltero/a,Mujer,Apartamento o piso,2 personas,Ninguna,Educación secundaria,2001€ - 2500€,Trabajo a tiempo completo,,true,false,[],[],[],,,,,,,,,,,,,,,,,,,,,,,,,,
,,,Chrome,141.0.0.0,,,,,,,html-button-response,2,5257,0.0-2.0,10,1,2025-10-31 15:13:50,380adedbb17a93fac604e03de424270a,90.77.128.47,"Mozilla/5.0 (Windows NT 10.0; Win64; x64) AppleWebKit/537.36 (KHTML, like Gecko) Chrome/141.0.0.0 Safari/537.36",WebKit,Windows,10.0,https://pmnk2gty5u.cognition.run/?jspsych-survey-multi-choice-response-0=S%C3%AD,"es-ES,es;q=0.9,en;q=0.8",Sí,,euaqPUeECPKM,,1536,695,0,53,Sí,Soltero/a,Mujer,Apartamento o piso,2 personas,Ninguna,Educación secundaria,2001€ - 2500€,Trabajo a tiempo completo,,,,,,,,,,,,,,,,,,,,,,,,,,,,,,,,
,,,Chrome,141.0.0.0,,,,,,,html-button-response,3,7145,0.0-3.0,10,1,2025-10-31 15:13:50,380adedbb17a93fac604e03de424270a,90.77.128.47,"Mozilla/5.0 (Windows NT 10.0; Win64; x64) AppleWebKit/537.36 (KHTML, like Gecko) Chrome/141.0.0.0 Safari/537.36",WebKit,Windows,10.0,https://pmnk2gty5u.cognition.run/?jspsych-survey-multi-choice-response-0=S%C3%AD,"es-ES,es;q=0.9,en;q=0.8",Sí,,euaqPUeECPKM,,1536,695,0,53,Sí,Soltero/a,Mujer,Apartamento o piso,2 personas,Ninguna,Educación secundaria,2001€ - 2500€,Trabajo a tiempo completo,,,,,,,1886,"
    <p>En la imagen de debajo puedes ver una representación de diferentes maneras de sentirse conectado/a con la naturaleza.</p> 
    <p>Si A representa la opción menos conectada con la naturaleza y G la opción más conectada, ¿dónde te situarías tú?</p>
    <div id=""img-container"" style=""text-align: center; height: 60px; margin-top: 20px; margin-bottom:300px;"">
        <img src=""img/SiO.png"" alt=""Connection with nature"" style=""max-height:300px;"">
    </div>
    ",3,,,,,,,,,,,,,,,,,,,,,,,
,,,Chrome,141.0.0.0,,,,,,,html-slider-response,4,11441,0.0-4.0,10,1,2025-10-31 15:13:50,380adedbb17a93fac604e03de424270a,90.77.128.47,"Mozilla/5.0 (Windows NT 10.0; Win64; x64) AppleWebKit/537.36 (KHTML, like Gecko) Chrome/141.0.0.0 Safari/537.36",WebKit,Windows,10.0,https://pmnk2gty5u.cognition.run/?jspsych-survey-multi-choice-response-0=S%C3%AD,"es-ES,es;q=0.9,en;q=0.8",Sí,,euaqPUeECPKM,,1536,695,0,53,Sí,Soltero/a,Mujer,Apartamento o piso,2 personas,Ninguna,Educación secundaria,2001€ - 2500€,Trabajo a tiempo completo,,,,,,,4295,"
    <p>Ahora, utiliza el siguiente botón deslizante para indicar <strong>cómo de importante es para ti estar en contacto con la naturaleza en tu vida diaria.</strong></p>
    ",53,50,,,,,,,,,,,,,,,,,,,,,,
,,,Chrome,141.0.0.0,,,,,,,html-button-response,5,13089,0.0-5.0,10,1,2025-10-31 15:13:50,380adedbb17a93fac604e03de424270a,90.77.128.47,"Mozilla/5.0 (Windows NT 10.0; Win64; x64) AppleWebKit/537.36 (KHTML, like Gecko) Chrome/141.0.0.0 Safari/537.36",WebKit,Windows,10.0,https://pmnk2gty5u.cognition.run/?jspsych-survey-multi-choice-response-0=S%C3%AD,"es-ES,es;q=0.9,en;q=0.8",Sí,,euaqPUeECPKM,,1536,695,0,53,Sí,Soltero/a,Mujer,Apartamento o piso,2 personas,Ninguna,Educación secundaria,2001€ - 2500€,Trabajo a tiempo completo,,,,,,,1647,"
    <h2>Preferencias sobre el barrio</h2>
    <p>A continuación, encontrarás una serie de afirmaciones relacionadas con las características que valoras en un barrio o zona para vivir.</p>
    <p>Por favor, indica tu grado de acuerdo o desacuerdo con cada una de las siguientes afirmaciones utilizando la escala proporcionada.</p>
    ",0,,,,,,,,,,,,,,,,,,,,,,,
,,,Chrome,141.0.0.0,,,,,,,survey-likert,6,39692,0.0-6.0,10,1,2025-10-31 15:13:50,380adedbb17a93fac604e03de424270a,90.77.128.47,"Mozilla/5.0 (Windows NT 10.0; Win64; x64) AppleWebKit/537.36 (KHTML, like Gecko) Chrome/141.0.0.0 Safari/537.36",WebKit,Windows,10.0,https://pmnk2gty5u.cognition.run/?jspsych-survey-multi-choice-response-0=S%C3%AD,"es-ES,es;q=0.9,en;q=0.8",Sí,,euaqPUeECPKM,,1536,695,0,53,Sí,Soltero/a,Mujer,Apartamento o piso,2 personas,Ninguna,Educación secundaria,2001€ - 2500€,Trabajo a tiempo completo,,,,,,,26600,,"{""Q6"":2,""Q1"":2,""Q7"":3,""Q4"":4,""Q8"":3,""Q2"":4,""Q5"":3,""Q3"":2,""Q0"":4}",,"[6,1,7,4,8,2,5,3,0]",,,,,,,,,,,,,,,,,,,,,
,,,Chrome,141.0.0.0,,,,,,,survey-multi-choice,7,42961,0.0-7.0,10,1,2025-10-31 15:13:50,380adedbb17a93fac604e03de424270a,90.77.128.47,"Mozilla/5.0 (Windows NT 10.0; Win64; x64) AppleWebKit/537.36 (KHTML, like Gecko) Chrome/141.0.0.0 Safari/537.36",WebKit,Windows,10.0,https://pmnk2gty5u.cognition.run/?jspsych-survey-multi-choice-response-0=S%C3%AD,"es-ES,es;q=0.9,en;q=0.8",Sí,,euaqPUeECPKM,,1536,695,0,53,Sí,Soltero/a,Mujer,Apartamento o piso,2 personas,Ninguna,Educación secundaria,2001€ - 2500€,Trabajo a tiempo completo,,,,,,,3268,,"{""biodiversity_belief"":""Sí""}",,[0],,,,,,,,,,,,,,,,,,,,,
,,,Chrome,141.0.0.0,,,,,,,html-button-response,8,49697,0.0-8.0,10,1,2025-10-31 15:13:50,380adedbb17a93fac604e03de424270a,90.77.128.47,"Mozilla/5.0 (Windows NT 10.0; Win64; x64) AppleWebKit/537.36 (KHTML, like Gecko) Chrome/141.0.0.0 Safari/537.36",WebKit,Windows,10.0,https://pmnk2gty5u.cognition.run/?jspsych-survey-multi-choice-response-0=S%C3%AD,"es-ES,es;q=0.9,en;q=0.8",Sí,,euaqPUeECPKM,,1536,695,0,53,Sí,Soltero/a,Mujer,Apartamento o piso,2 personas,Ninguna,Educación secundaria,2001€ - 2500€,Trabajo a tiempo completo,,,,,,,6734,"<h2>Sobre tu respuesta</h2><p>Has indicado que <strong>SÍ</strong> crees que el tipo de vegetación o su manejo tengan un efecto sobre la biodiversidad. <br>Según estudios recientes, en efecto se ha observado que la biodiversidad aumenta en áreas con mayor cantidad de árboles combinados con arbustos y hierba, y cuanto menos se pode la cobertura herbácea.</p>",0,,,,,,,,,,,,,,,,,,,,,,,
,,,Chrome,141.0.0.0,,,,,,,survey-likert,9,61570,0.0-9.0,10,1,2025-10-31 15:13:50,380adedbb17a93fac604e03de424270a,90.77.128.47,"Mozilla/5.0 (Windows NT 10.0; Win64; x64) AppleWebKit/537.36 (KHTML, like Gecko) Chrome/141.0.0.0 Safari/537.36",WebKit,Windows,10.0,https://pmnk2gty5u.cognition.run/?jspsych-survey-multi-choice-response-0=S%C3%AD,"es-ES,es;q=0.9,en;q=0.8",Sí,,euaqPUeECPKM,,1536,695,0,53,Sí,Soltero/a,Mujer,Apartamento o piso,2 personas,Ninguna,Educación secundaria,2001€ - 2500€,Trabajo a tiempo completo,,,,,,,11871,,"{""Q1"":3,""Q0"":3,""Q2"":2}",,"[1,0,2]",,,,,,,,,,,,,,,,,,,,,
,,,Chrome,141.0.0.0,,,,,,,html-button-response,10,74673,0.0-10.0,10,1,2025-10-31 15:13:50,380adedbb17a93fac604e03de424270a,90.77.128.47,"Mozilla/5.0 (Windows NT 10.0; Win64; x64) AppleWebKit/537.36 (KHTML, like Gecko) Chrome/141.0.0.0 Safari/537.36",WebKit,Windows,10.0,https://pmnk2gty5u.cognition.run/?jspsych-survey-multi-choice-response-0=S%C3%AD,"es-ES,es;q=0.9,en;q=0.8",Sí,,euaqPUeECPKM,,1536,695,0,53,Sí,Soltero/a,Mujer,Apartamento o piso,2 personas,Ninguna,Educación secundaria,2001€ - 2500€,Trabajo a tiempo completo,,,,,,,,,,,,LSP,,,,,,,,,,,,,,,,,,,,
,,,Chrome,141.0.0.0,,,,,,,html-button-response,11,83521,0.0-11.0,10,1,2025-10-31 15:13:50,380adedbb17a93fac604e03de424270a,90.77.128.47,"Mozilla/5.0 (Windows NT 10.0; Win64; x64) AppleWebKit/537.36 (KHTML, like Gecko) Chrome/141.0.0.0 Safari/537.36",WebKit,Windows,10.0,https://pmnk2gty5u.cognition.run/?jspsych-survey-multi-choice-response-0=S%C3%AD,"es-ES,es;q=0.9,en;q=0.8",Sí,,euaqPUeECPKM,,1536,695,0,53,Sí,Soltero/a,Mujer,Apartamento o piso,2 personas,Ninguna,Educación secundaria,2001€ - 2500€,Trabajo a tiempo completo,,,,,,,,,,,,,,,,,,,,,,,,,,,,,,,,
,,,Chrome,141.0.0.0,,,,,,,html-keyboard-response,12,83773,0.0-12.0-0.0,10,1,2025-10-31 15:13:50,380adedbb17a93fac604e03de424270a,90.77.128.47,"Mozilla/5.0 (Windows NT 10.0; Win64; x64) AppleWebKit/537.36 (KHTML, like Gecko) Chrome/141.0.0.0 Safari/537.36",WebKit,Windows,10.0,https://pmnk2gty5u.cognition.run/?jspsych-survey-multi-choice-response-0=S%C3%AD,"es-ES,es;q=0.9,en;q=0.8",Sí,,euaqPUeECPKM,,1536,695,0,53,Sí,Soltero/a,Mujer,Apartamento o piso,2 personas,Ninguna,Educación secundaria,2001€ - 2500€,Trabajo a tiempo completo,,,,,,,null,"<div style=""display: flex; justify-content: center; align-items: center; height: 100vh;"">
        <div class=""loader""></div></div>",null,,,,fixation,,,,,,,,,,,,,,,,,,,
,,,Chrome,141.0.0.0,,,,,,,html-button-response,13,100305,0.0-12.0-1.0,10,1,2025-10-31 15:13:50,380adedbb17a93fac604e03de424270a,90.77.128.47,"Mozilla/5.0 (Windows NT 10.0; Win64; x64) AppleWebKit/537.36 (KHTML, like Gecko) Chrome/141.0.0.0 Safari/537.36",WebKit,Windows,10.0,https://pmnk2gty5u.cognition.run/?jspsych-survey-multi-choice-response-0=S%C3%AD,"es-ES,es;q=0.9,en;q=0.8",Sí,,euaqPUeECPKM,,1536,695,0,53,Sí,Soltero/a,Mujer,Apartamento o piso,2 personas,Ninguna,Educación secundaria,2001€ - 2500€,Trabajo a tiempo completo,,,,,,,16532,,,,,left,choice,img/photos/LSH3.png,img/photos/LSP5.png,img/photos/structure3.png,img/photos/structure5.png,img/photos/pruning1.png,img/photos/pruning1.png,Dispersas,Concentradas,"Algunos árboles, con hierba y arbustos","Solo hierba, sin árboles ni arbustos",Hierba y arbustos sin podar,Hierba y arbustos sin podar,De 5 a 10 minutos,20 minutos o más,625,600,90,70,
,,,Chrome,141.0.0.0,,,,,,,html-keyboard-response,14,100957,0.0-12.0-0.1,10,1,2025-10-31 15:13:50,380adedbb17a93fac604e03de424270a,90.77.128.47,"Mozilla/5.0 (Windows NT 10.0; Win64; x64) AppleWebKit/537.36 (KHTML, like Gecko) Chrome/141.0.0.0 Safari/537.36",WebKit,Windows,10.0,https://pmnk2gty5u.cognition.run/?jspsych-survey-multi-choice-response-0=S%C3%AD,"es-ES,es;q=0.9,en;q=0.8",Sí,,euaqPUeECPKM,,1536,695,0,53,Sí,Soltero/a,Mujer,Apartamento o piso,2 personas,Ninguna,Educación secundaria,2001€ - 2500€,Trabajo a tiempo completo,,,,,,,null,"<div style=""display: flex; justify-content: center; align-items: center; height: 100vh;"">
        <div class=""loader""></div></div>",null,,,,fixation,,,,,,,,,,,,,,,,,,,
,,,Chrome,141.0.0.0,,,,,,,html-button-response,15,114241,0.0-12.0-1.1,10,1,2025-10-31 15:13:50,380adedbb17a93fac604e03de424270a,90.77.128.47,"Mozilla/5.0 (Windows NT 10.0; Win64; x64) AppleWebKit/537.36 (KHTML, like Gecko) Chrome/141.0.0.0 Safari/537.36",WebKit,Windows,10.0,https://pmnk2gty5u.cognition.run/?jspsych-survey-multi-choice-response-0=S%C3%AD,"es-ES,es;q=0.9,en;q=0.8",Sí,,euaqPUeECPKM,,1536,695,0,53,Sí,Soltero/a,Mujer,Apartamento o piso,2 personas,Ninguna,Educación secundaria,2001€ - 2500€,Trabajo a tiempo completo,,,,,,,13284,,,,,right,choice,img/photos/LSP1.png,img/photos/LSH1.png,img/photos/structure3.png,img/photos/structure1.png,img/photos/pruning1.png,img/photos/pruning3.png,Concentradas,Dispersas,"Algunos árboles, con hierba y arbustos","Muchos árboles, con hierba y arbustos",Hierba y arbustos sin podar,Hierba y arbustos podados completamente,Enfrente de casa,Enfrente de casa,700,700,110,110,
,,,Chrome,141.0.0.0,,,,,,,html-keyboard-response,16,114893,0.0-12.0-0.2,10,1,2025-10-31 15:13:50,380adedbb17a93fac604e03de424270a,90.77.128.47,"Mozilla/5.0 (Windows NT 10.0; Win64; x64) AppleWebKit/537.36 (KHTML, like Gecko) Chrome/141.0.0.0 Safari/537.36",WebKit,Windows,10.0,https://pmnk2gty5u.cognition.run/?jspsych-survey-multi-choice-response-0=S%C3%AD,"es-ES,es;q=0.9,en;q=0.8",Sí,,euaqPUeECPKM,,1536,695,0,53,Sí,Soltero/a,Mujer,Apartamento o piso,2 personas,Ninguna,Educación secundaria,2001€ - 2500€,Trabajo a tiempo completo,,,,,,,null,"<div style=""display: flex; justify-content: center; align-items: center; height: 100vh;"">
        <div class=""loader""></div></div>",null,,,,fixation,,,,,,,,,,,,,,,,,,,
,,,Chrome,141.0.0.0,,,,,,,html-button-response,17,126953,0.0-12.0-1.2,10,1,2025-10-31 15:13:50,380adedbb17a93fac604e03de424270a,90.77.128.47,"Mozilla/5.0 (Windows NT 10.0; Win64; x64) AppleWebKit/537.36 (KHTML, like Gecko) Chrome/141.0.0.0 Safari/537.36",WebKit,Windows,10.0,https://pmnk2gty5u.cognition.run/?jspsych-survey-multi-choice-response-0=S%C3%AD,"es-ES,es;q=0.9,en;q=0.8",Sí,,euaqPUeECPKM,,1536,695,0,53,Sí,Soltero/a,Mujer,Apartamento o piso,2 personas,Ninguna,Educación secundaria,2001€ - 2500€,Trabajo a tiempo completo,,,,,,,12060,,,,,left,choice,img/photos/LSP3.png,img/photos/LSH2.png,img/photos/structure1.png,img/photos/structure4.png,img/photos/pruning1.png,img/photos/pruning2.png,Concentradas,Dispersas,"Muchos árboles, con hierba y arbustos","Sin árboles, solo hierba y arbustos",Hierba y arbustos sin podar,Hierba y arbustos podados parcialmente,De 5 a 10 minutos,Menos de 5 minutos,525,425,90,80,
,,,Chrome,141.0.0.0,,,,,,,html-keyboard-response,18,127606,0.0-12.0-0.3,10,1,2025-10-31 15:13:50,380adedbb17a93fac604e03de424270a,90.77.128.47,"Mozilla/5.0 (Windows NT 10.0; Win64; x64) AppleWebKit/537.36 (KHTML, like Gecko) Chrome/141.0.0.0 Safari/537.36",WebKit,Windows,10.0,https://pmnk2gty5u.cognition.run/?jspsych-survey-multi-choice-response-0=S%C3%AD,"es-ES,es;q=0.9,en;q=0.8",Sí,,euaqPUeECPKM,,1536,695,0,53,Sí,Soltero/a,Mujer,Apartamento o piso,2 personas,Ninguna,Educación secundaria,2001€ - 2500€,Trabajo a tiempo completo,,,,,,,null,"<div style=""display: flex; justify-content: center; align-items: center; height: 100vh;"">
        <div class=""loader""></div></div>",null,,,,fixation,,,,,,,,,,,,,,,,,,,
,,,Chrome,141.0.0.0,,,,,,,html-button-response,19,141209,0.0-12.0-1.3,10,1,2025-10-31 15:13:50,380adedbb17a93fac604e03de424270a,90.77.128.47,"Mozilla/5.0 (Windows NT 10.0; Win64; x64) AppleWebKit/537.36 (KHTML, like Gecko) Chrome/141.0.0.0 Safari/537.36",WebKit,Windows,10.0,https://pmnk2gty5u.cognition.run/?jspsych-survey-multi-choice-response-0=S%C3%AD,"es-ES,es;q=0.9,en;q=0.8",Sí,,euaqPUeECPKM,,1536,695,0,53,Sí,Soltero/a,Mujer,Apartamento o piso,2 personas,Ninguna,Educación secundaria,2001€ - 2500€,Trabajo a tiempo completo,,,,,,,13603,,,,,right,choice,img/photos/LSP3.png,img/photos/LSH3.png,img/photos/structure3.png,img/photos/structure2.png,img/photos/pruning3.png,img/photos/pruning3.png,Concentradas,Dispersas,"Algunos árboles, con hierba y arbustos","Árboles diseminados, con hierba y arbustos",Hierba y arbustos podados completamente,Hierba y arbustos podados completamente,De 5 a 10 minutos,De 5 a 10 minutos,575,475,70,90,
,,,Chrome,141.0.0.0,,,,,,,html-keyboard-response,20,141611,0.0-12.0-0.4,10,1,2025-10-31 15:13:50,380adedbb17a93fac604e03de424270a,90.77.128.47,"Mozilla/5.0 (Windows NT 10.0; Win64; x64) AppleWebKit/537.36 (KHTML, like Gecko) Chrome/141.0.0.0 Safari/537.36",WebKit,Windows,10.0,https://pmnk2gty5u.cognition.run/?jspsych-survey-multi-choice-response-0=S%C3%AD,"es-ES,es;q=0.9,en;q=0.8",Sí,,euaqPUeECPKM,,1536,695,0,53,Sí,Soltero/a,Mujer,Apartamento o piso,2 personas,Ninguna,Educación secundaria,2001€ - 2500€,Trabajo a tiempo completo,,,,,,,null,"<div style=""display: flex; justify-content: center; align-items: center; height: 100vh;"">
        <div class=""loader""></div></div>",null,,,,fixation,,,,,,,,,,,,,,,,,,,
,,,Chrome,141.0.0.0,,,,,,,html-button-response,21,150505,0.0-12.0-1.4,10,1,2025-10-31 15:13:50,380adedbb17a93fac604e03de424270a,90.77.128.47,"Mozilla/5.0 (Windows NT 10.0; Win64; x64) AppleWebKit/537.36 (KHTML, like Gecko) Chrome/141.0.0.0 Safari/537.36",WebKit,Windows,10.0,https://pmnk2gty5u.cognition.run/?jspsych-survey-multi-choice-response-0=S%C3%AD,"es-ES,es;q=0.9,en;q=0.8",Sí,,euaqPUeECPKM,,1536,695,0,53,Sí,Soltero/a,Mujer,Apartamento o piso,2 personas,Ninguna,Educación secundaria,2001€ - 2500€,Trabajo a tiempo completo,,,,,,,8894,,,,,left,choice,img/photos/LSH1.png,img/photos/LSP5.png,img/photos/structure1.png,img/photos/structure5.png,img/photos/pruning2.png,img/photos/pruning3.png,Dispersas,Concentradas,"Muchos árboles, con hierba y arbustos","Solo hierba, sin árboles ni arbustos",Hierba y arbustos podados parcialmente,Hierba y arbustos podados completamente,Enfrente de casa,20 minutos o más,800,475,70,110,
,,,Chrome,141.0.0.0,,,,,,,html-keyboard-response,22,150757,0.0-12.0-0.5,10,1,2025-10-31 15:13:50,380adedbb17a93fac604e03de424270a,90.77.128.47,"Mozilla/5.0 (Windows NT 10.0; Win64; x64) AppleWebKit/537.36 (KHTML, like Gecko) Chrome/141.0.0.0 Safari/537.36",WebKit,Windows,10.0,https://pmnk2gty5u.cognition.run/?jspsych-survey-multi-choice-response-0=S%C3%AD,"es-ES,es;q=0.9,en;q=0.8",Sí,,euaqPUeECPKM,,1536,695,0,53,Sí,Soltero/a,Mujer,Apartamento o piso,2 personas,Ninguna,Educación secundaria,2001€ - 2500€,Trabajo a tiempo completo,,,,,,,null,"<div style=""display: flex; justify-content: center; align-items: center; height: 100vh;"">
        <div class=""loader""></div></div>",null,,,,fixation,,,,,,,,,,,,,,,,,,,
,,,Chrome,141.0.0.0,,,,,,,html-button-response,23,171649,0.0-12.0-1.5,10,1,2025-10-31 15:13:50,380adedbb17a93fac604e03de424270a,90.77.128.47,"Mozilla/5.0 (Windows NT 10.0; Win64; x64) AppleWebKit/537.36 (KHTML, like Gecko) Chrome/141.0.0.0 Safari/537.36",WebKit,Windows,10.0,https://pmnk2gty5u.cognition.run/?jspsych-survey-multi-choice-response-0=S%C3%AD,"es-ES,es;q=0.9,en;q=0.8",Sí,,euaqPUeECPKM,,1536,695,0,53,Sí,Soltero/a,Mujer,Apartamento o piso,2 personas,Ninguna,Educación secundaria,2001€ - 2500€,Trabajo a tiempo completo,,,,,,,20892,,,,,right,choice,img/photos/LSP1.png,img/photos/LSH2.png,img/photos/structure4.png,img/photos/structure2.png,img/photos/pruning1.png,img/photos/pruning3.png,Concentradas,Dispersas,"Sin árboles, solo hierba y arbustos","Árboles diseminados, con hierba y arbustos",Hierba y arbustos sin podar,Hierba y arbustos podados completamente,Enfrente de casa,Menos de 5 minutos,700,525,100,40,
,,,Chrome,141.0.0.0,,,,,,,survey-multi-choice,24,176178,0.0-13.0,10,1,2025-10-31 15:13:50,380adedbb17a93fac604e03de424270a,90.77.128.47,"Mozilla/5.0 (Windows NT 10.0; Win64; x64) AppleWebKit/537.36 (KHTML, like Gecko) Chrome/141.0.0.0 Safari/537.36",WebKit,Windows,10.0,https://pmnk2gty5u.cognition.run/?jspsych-survey-multi-choice-response-0=S%C3%AD,"es-ES,es;q=0.9,en;q=0.8",Sí,,euaqPUeECPKM,,1536,695,0,53,Sí,Soltero/a,Mujer,Apartamento o piso,2 personas,Ninguna,Educación secundaria,2001€ - 2500€,Trabajo a tiempo completo,,,,,,,4527,,"{""marital_status"":""Soltero/a""}",,[0],,,,,,,,,,,,,,,,,,,,,
,,,Chrome,141.0.0.0,,,,,,,survey-text,25,181402,0.0-14.0-0.0,10,1,2025-10-31 15:13:50,380adedbb17a93fac604e03de424270a,90.77.128.47,"Mozilla/5.0 (Windows NT 10.0; Win64; x64) AppleWebKit/537.36 (KHTML, like Gecko) Chrome/141.0.0.0 Safari/537.36",WebKit,Windows,10.0,https://pmnk2gty5u.cognition.run/?jspsych-survey-multi-choice-response-0=S%C3%AD,"es-ES,es;q=0.9,en;q=0.8",Sí,,euaqPUeECPKM,,1536,695,0,53,Sí,Soltero/a,Mujer,Apartamento o piso,2 personas,Ninguna,Educación secundaria,2001€ - 2500€,Trabajo a tiempo completo,,,,,,,5219,,"{""age"":""49""}",,,,,,,,,,,,,,,,,,,,,,,true
,,,Chrome,141.0.0.0,,,,,,,survey-multi-choice,26,184874,0.0-15.0,10,1,2025-10-31 15:13:50,380adedbb17a93fac604e03de424270a,90.77.128.47,"Mozilla/5.0 (Windows NT 10.0; Win64; x64) AppleWebKit/537.36 (KHTML, like Gecko) Chrome/141.0.0.0 Safari/537.36",WebKit,Windows,10.0,https://pmnk2gty5u.cognition.run/?jspsych-survey-multi-choice-response-0=S%C3%AD,"es-ES,es;q=0.9,en;q=0.8",Sí,,euaqPUeECPKM,,1536,695,0,53,Sí,Soltero/a,Mujer,Apartamento o piso,2 personas,Ninguna,Educación secundaria,2001€ - 2500€,Trabajo a tiempo completo,,,,,,,3471,,"{""gender"":""Mujer""}",,[0],,,,,,,,,,,,,,,,,,,,,
,,,Chrome,141.0.0.0,,,,,,,survey-multi-choice,27,208972,0.0-16.0,10,1,2025-10-31 15:13:50,380adedbb17a93fac604e03de424270a,90.77.128.47,"Mozilla/5.0 (Windows NT 10.0; Win64; x64) AppleWebKit/537.36 (KHTML, like Gecko) Chrome/141.0.0.0 Safari/537.36",WebKit,Windows,10.0,https://pmnk2gty5u.cognition.run/?jspsych-survey-multi-choice-response-0=S%C3%AD,"es-ES,es;q=0.9,en;q=0.8",Sí,,euaqPUeECPKM,,1536,695,0,53,Sí,Soltero/a,Mujer,Apartamento o piso,2 personas,Ninguna,Educación secundaria,2001€ - 2500€,Trabajo a tiempo completo,,,,,,,24095,,"{""dwelling"":""Apartamento o piso"",""ownership"":""Propia"",""tamuni"":""Zona urbana (más de 50.000 habitantes)""}",,"[0,1,2]",,,,,,,,,,,,,,,,,,,,,
,,,Chrome,141.0.0.0,,,,,,,survey-multi-choice,28,218803,0.0-17.0,10,1,2025-10-31 15:13:50,380adedbb17a93fac604e03de424270a,90.77.128.47,"Mozilla/5.0 (Windows NT 10.0; Win64; x64) AppleWebKit/537.36 (KHTML, like Gecko) Chrome/141.0.0.0 Safari/537.36",WebKit,Windows,10.0,https://pmnk2gty5u.cognition.run/?jspsych-survey-multi-choice-response-0=S%C3%AD,"es-ES,es;q=0.9,en;q=0.8",Sí,,euaqPUeECPKM,,1536,695,0,53,Sí,Soltero/a,Mujer,Apartamento o piso,2 personas,Ninguna,Educación secundaria,2001€ - 2500€,Trabajo a tiempo completo,,,,,,,9829,,"{""adults"":""2 personas"",""children"":""Ninguna""}",,"[0,1]",,,,,,,,,,,,,,,,,,,,,
,,,Chrome,141.0.0.0,,,,,,,survey-multi-choice,29,223066,0.0-18.0,10,1,2025-10-31 15:13:50,380adedbb17a93fac604e03de424270a,90.77.128.47,"Mozilla/5.0 (Windows NT 10.0; Win64; x64) AppleWebKit/537.36 (KHTML, like Gecko) Chrome/141.0.0.0 Safari/537.36",WebKit,Windows,10.0,https://pmnk2gty5u.cognition.run/?jspsych-survey-multi-choice-response-0=S%C3%AD,"es-ES,es;q=0.9,en;q=0.8",Sí,,euaqPUeECPKM,,1536,695,0,53,Sí,Soltero/a,Mujer,Apartamento o piso,2 personas,Ninguna,Educación secundaria,2001€ - 2500€,Trabajo a tiempo completo,,,,,,,4262,,"{""education"":""Educación secundaria""}",,[0],,,,,,,,,,,,,,,,,,,,,
,,,Chrome,141.0.0.0,,,,,,,survey-multi-choice,30,235331,0.0-19.0,10,1,2025-10-31 15:13:50,380adedbb17a93fac604e03de424270a,90.77.128.47,"Mozilla/5.0 (Windows NT 10.0; Win64; x64) AppleWebKit/537.36 (KHTML, like Gecko) Chrome/141.0.0.0 Safari/537.36",WebKit,Windows,10.0,https://pmnk2gty5u.cognition.run/?jspsych-survey-multi-choice-response-0=S%C3%AD,"es-ES,es;q=0.9,en;q=0.8",Sí,,euaqPUeECPKM,,1536,695,0,53,Sí,Soltero/a,Mujer,Apartamento o piso,2 personas,Ninguna,Educación secundaria,2001€ - 2500€,Trabajo a tiempo completo,,,,,,,12263,,"{""occupation"":""Trabajo a tiempo completo"",""income"":""2001€ - 2500€""}",,"[0,1]",,,,,,,,,,,,,,,,,,,,,
,,,Chrome,141.0.0.0,,,,,,,html-slider-response,31,239361,0.0-20.0,10,1,2025-10-31 15:13:50,380adedbb17a93fac604e03de424270a,90.77.128.47,"Mozilla/5.0 (Windows NT 10.0; Win64; x64) AppleWebKit/537.36 (KHTML, like Gecko) Chrome/141.0.0.0 Safari/537.36",WebKit,Windows,10.0,https://pmnk2gty5u.cognition.run/?jspsych-survey-multi-choice-response-0=S%C3%AD,"es-ES,es;q=0.9,en;q=0.8",Sí,,euaqPUeECPKM,,1536,695,0,53,Sí,Soltero/a,Mujer,Apartamento o piso,2 personas,Ninguna,Educación secundaria,2001€ - 2500€,Trabajo a tiempo completo,,,,,,,4028,"<div style=""width:500px; text-align:center; margin: 0 auto;"">
        <p>A menudo la gente habla de ""izquierda"" y ""derecha"" para hablar de su orientación política</p>
        <p>Utiliza el siguiente deslizador para indicar dónde te sitúas en este espectro político.</p>
        </div>",64,50,,,,,,,,,,,,,,,,,,,,,,
,,,Chrome,141.0.0.0,,,,,,,survey-text,32,241313,0.0-21.0,10,1,2025-10-31 15:13:50,380adedbb17a93fac604e03de424270a,90.77.128.47,"Mozilla/5.0 (Windows NT 10.0; Win64; x64) AppleWebKit/537.36 (KHTML, like Gecko) Chrome/141.0.0.0 Safari/537.36",WebKit,Windows,10.0,https://pmnk2gty5u.cognition.run/?jspsych-survey-multi-choice-response-0=S%C3%AD,"es-ES,es;q=0.9,en;q=0.8",Sí,,euaqPUeECPKM,,1536,695,0,53,Sí,Soltero/a,Mujer,Apartamento o piso,2 personas,Ninguna,Educación secundaria,2001€ - 2500€,Trabajo a tiempo completo,,,,,,,1950,,"{""remarks"":""""}",,,,,,,,,,,,,,,,,,,,,,,
,,,Chrome,141.0.0.0,,,,,,,html-button-response,33,242553,0.0-22.0,10,1,2025-10-31 15:13:50,380adedbb17a93fac604e03de424270a,90.77.128.47,"Mozilla/5.0 (Windows NT 10.0; Win64; x64) AppleWebKit/537.36 (KHTML, like Gecko) Chrome/141.0.0.0 Safari/537.36",WebKit,Windows,10.0,https://pmnk2gty5u.cognition.run/?jspsych-survey-multi-choice-response-0=S%C3%AD,"es-ES,es;q=0.9,en;q=0.8",Sí,,euaqPUeECPKM,,1536,695,0,53,Sí,Soltero/a,Mujer,Apartamento o piso,2 personas,Ninguna,Educación secundaria,2001€ - 2500€,Trabajo a tiempo completo,,,,,,,1239,"
        <h1>¡Gracias por participar en este experimento!</h1>
        El propósito de este estudio es examinar la importancia de las zonas verdes en la población. 
        Si tienes más preguntas, no dude en contactarnos por correo a jorgesuarez@ugr.es",0,,,,,,,,,,,,,,,,,,,,,,,
2955,1574,true,Chrome,141.0.0.0,false,Mac OS,true,144.3,false,true,browser-check,0,625,0.0-0.0,1,1,2025-10-31 15:10:18,380adedbb17a93fac604e03de424270a,79.116.250.121,"Mozilla/5.0 (Macintosh; Intel Mac OS X 10_15_7) AppleWebKit/537.36 (KHTML, like Gecko) Chrome/141.0.0.0 Safari/537.36",Macintosh,OS X,10_15_7,https://pmnk2gty5u.cognition.run/?PROLIFIC_PID=5c883760e0f6e50017f0abbb&STUDY_ID=6904d131854900d7f8d26db6&SESSION_ID=6904d1572f0670fe09aab0e8,"es-ES,es;q=0.9",,5c883760e0f6e50017f0abbb,v0ThG0kgG2vt,5c883760e0f6e50017f0abbb,2955,1574,0,33,Sí,Pareja de hecho o relación estable no matrimonial,Hombre,Apartamento o piso,2 personas,Ninguna,Grado o diplomatura,3001€ - 4000€,Trabajo a tiempo completo,,,,,,,,,,,,,,,,,,,,,,,,,,,,,,,,,6904d131854900d7f8d26db6,6904d1572f0670fe09aab0e8
,,,Chrome,141.0.0.0,,,,,,,preload,1,966,0.0-1.0,1,1,2025-10-31 15:10:18,380adedbb17a93fac604e03de424270a,79.116.250.121,"Mozilla/5.0 (Macintosh; Intel Mac OS X 10_15_7) AppleWebKit/537.36 (KHTML, like Gecko) Chrome/141.0.0.0 Safari/537.36",Macintosh,OS X,10_15_7,https://pmnk2gty5u.cognition.run/?PROLIFIC_PID=5c883760e0f6e50017f0abbb&STUDY_ID=6904d131854900d7f8d26db6&SESSION_ID=6904d1572f0670fe09aab0e8,"es-ES,es;q=0.9",,5c883760e0f6e50017f0abbb,v0ThG0kgG2vt,5c883760e0f6e50017f0abbb,2955,1574,0,33,Sí,Pareja de hecho o relación estable no matrimonial,Hombre,Apartamento o piso,2 personas,Ninguna,Grado o diplomatura,3001€ - 4000€,Trabajo a tiempo completo,,true,false,[],[],[],,,,,,,,,,,,,,,,,,,,,,,,,,,6904d131854900d7f8d26db6,6904d1572f0670fe09aab0e8
,,,Chrome,141.0.0.0,,,,,,,html-button-response,2,4838,0.0-2.0,1,1,2025-10-31 15:10:18,380adedbb17a93fac604e03de424270a,79.116.250.121,"Mozilla/5.0 (Macintosh; Intel Mac OS X 10_15_7) AppleWebKit/537.36 (KHTML, like Gecko) Chrome/141.0.0.0 Safari/537.36",Macintosh,OS X,10_15_7,https://pmnk2gty5u.cognition.run/?PROLIFIC_PID=5c883760e0f6e50017f0abbb&STUDY_ID=6904d131854900d7f8d26db6&SESSION_ID=6904d1572f0670fe09aab0e8,"es-ES,es;q=0.9",,5c883760e0f6e50017f0abbb,v0ThG0kgG2vt,5c883760e0f6e50017f0abbb,2955,1574,0,33,Sí,Pareja de hecho o relación estable no matrimonial,Hombre,Apartamento o piso,2 personas,Ninguna,Grado o diplomatura,3001€ - 4000€,Trabajo a tiempo completo,,,,,,,,,,,,,,,,,,,,,,,,,,,,,,,,,6904d131854900d7f8d26db6,6904d1572f0670fe09aab0e8
,,,Chrome,141.0.0.0,,,,,,,html-button-response,3,13029,0.0-3.0,1,1,2025-10-31 15:10:18,380adedbb17a93fac604e03de424270a,79.116.250.121,"Mozilla/5.0 (Macintosh; Intel Mac OS X 10_15_7) AppleWebKit/537.36 (KHTML, like Gecko) Chrome/141.0.0.0 Safari/537.36",Macintosh,OS X,10_15_7,https://pmnk2gty5u.cognition.run/?PROLIFIC_PID=5c883760e0f6e50017f0abbb&STUDY_ID=6904d131854900d7f8d26db6&SESSION_ID=6904d1572f0670fe09aab0e8,"es-ES,es;q=0.9",,5c883760e0f6e50017f0abbb,v0ThG0kgG2vt,5c883760e0f6e50017f0abbb,2955,1574,0,33,Sí,Pareja de hecho o relación estable no matrimonial,Hombre,Apartamento o piso,2 personas,Ninguna,Grado o diplomatura,3001€ - 4000€,Trabajo a tiempo completo,,,,,,,8189,"
    <p>En la imagen de debajo puedes ver una representación de diferentes maneras de sentirse conectado/a con la naturaleza.</p> 
    <p>Si A representa la opción menos conectada con la naturaleza y G la opción más conectada, ¿dónde te situarías tú?</p>
    <div id=""img-container"" style=""text-align: center; height: 60px; margin-top: 20px; margin-bottom:300px;"">
        <img src=""img/SiO.png"" alt=""Connection with nature"" style=""max-height:300px;"">
    </div>
    ",1,,,,,,,,,,,,,,,,,,,,,,,,6904d131854900d7f8d26db6,6904d1572f0670fe09aab0e8
,,,Chrome,141.0.0.0,,,,,,,html-slider-response,4,17948,0.0-4.0,1,1,2025-10-31 15:10:18,380adedbb17a93fac604e03de424270a,79.116.250.121,"Mozilla/5.0 (Macintosh; Intel Mac OS X 10_15_7) AppleWebKit/537.36 (KHTML, like Gecko) Chrome/141.0.0.0 Safari/537.36",Macintosh,OS X,10_15_7,https://pmnk2gty5u.cognition.run/?PROLIFIC_PID=5c883760e0f6e50017f0abbb&STUDY_ID=6904d131854900d7f8d26db6&SESSION_ID=6904d1572f0670fe09aab0e8,"es-ES,es;q=0.9",,5c883760e0f6e50017f0abbb,v0ThG0kgG2vt,5c883760e0f6e50017f0abbb,2955,1574,0,33,Sí,Pareja de hecho o relación estable no matrimonial,Hombre,Apartamento o piso,2 personas,Ninguna,Grado o diplomatura,3001€ - 4000€,Trabajo a tiempo completo,,,,,,,4916,"
    <p>Ahora, utiliza el siguiente botón deslizante para indicar <strong>cómo de importante es para ti estar en contacto con la naturaleza en tu vida diaria.</strong></p>
    ",33,50,,,,,,,,,,,,,,,,,,,,,,,6904d131854900d7f8d26db6,6904d1572f0670fe09aab0e8
,,,Chrome,141.0.0.0,,,,,,,html-button-response,5,20447,0.0-5.0,1,1,2025-10-31 15:10:18,380adedbb17a93fac604e03de424270a,79.116.250.121,"Mozilla/5.0 (Macintosh; Intel Mac OS X 10_15_7) AppleWebKit/537.36 (KHTML, like Gecko) Chrome/141.0.0.0 Safari/537.36",Macintosh,OS X,10_15_7,https://pmnk2gty5u.cognition.run/?PROLIFIC_PID=5c883760e0f6e50017f0abbb&STUDY_ID=6904d131854900d7f8d26db6&SESSION_ID=6904d1572f0670fe09aab0e8,"es-ES,es;q=0.9",,5c883760e0f6e50017f0abbb,v0ThG0kgG2vt,5c883760e0f6e50017f0abbb,2955,1574,0,33,Sí,Pareja de hecho o relación estable no matrimonial,Hombre,Apartamento o piso,2 personas,Ninguna,Grado o diplomatura,3001€ - 4000€,Trabajo a tiempo completo,,,,,,,2496,"
    <h2>Preferencias sobre el barrio</h2>
    <p>A continuación, encontrarás una serie de afirmaciones relacionadas con las características que valoras en un barrio o zona para vivir.</p>
    <p>Por favor, indica tu grado de acuerdo o desacuerdo con cada una de las siguientes afirmaciones utilizando la escala proporcionada.</p>
    ",0,,,,,,,,,,,,,,,,,,,,,,,,6904d131854900d7f8d26db6,6904d1572f0670fe09aab0e8
,,,Chrome,141.0.0.0,,,,,,,survey-likert,6,41114,0.0-6.0,1,1,2025-10-31 15:10:18,380adedbb17a93fac604e03de424270a,79.116.250.121,"Mozilla/5.0 (Macintosh; Intel Mac OS X 10_15_7) AppleWebKit/537.36 (KHTML, like Gecko) Chrome/141.0.0.0 Safari/537.36",Macintosh,OS X,10_15_7,https://pmnk2gty5u.cognition.run/?PROLIFIC_PID=5c883760e0f6e50017f0abbb&STUDY_ID=6904d131854900d7f8d26db6&SESSION_ID=6904d1572f0670fe09aab0e8,"es-ES,es;q=0.9",,5c883760e0f6e50017f0abbb,v0ThG0kgG2vt,5c883760e0f6e50017f0abbb,2955,1574,0,33,Sí,Pareja de hecho o relación estable no matrimonial,Hombre,Apartamento o piso,2 personas,Ninguna,Grado o diplomatura,3001€ - 4000€,Trabajo a tiempo completo,,,,,,,20663,,"{""Q0"":3,""Q7"":3,""Q8"":2,""Q6"":1,""Q4"":4,""Q5"":0,""Q3"":0,""Q1"":3,""Q2"":3}",,"[0,7,8,6,4,5,3,1,2]",,,,,,,,,,,,,,,,,,,,,,6904d131854900d7f8d26db6,6904d1572f0670fe09aab0e8
,,,Chrome,141.0.0.0,,,,,,,survey-multi-choice,7,51819,0.0-7.0,1,1,2025-10-31 15:10:18,380adedbb17a93fac604e03de424270a,79.116.250.121,"Mozilla/5.0 (Macintosh; Intel Mac OS X 10_15_7) AppleWebKit/537.36 (KHTML, like Gecko) Chrome/141.0.0.0 Safari/537.36",Macintosh,OS X,10_15_7,https://pmnk2gty5u.cognition.run/?PROLIFIC_PID=5c883760e0f6e50017f0abbb&STUDY_ID=6904d131854900d7f8d26db6&SESSION_ID=6904d1572f0670fe09aab0e8,"es-ES,es;q=0.9",,5c883760e0f6e50017f0abbb,v0ThG0kgG2vt,5c883760e0f6e50017f0abbb,2955,1574,0,33,Sí,Pareja de hecho o relación estable no matrimonial,Hombre,Apartamento o piso,2 personas,Ninguna,Grado o diplomatura,3001€ - 4000€,Trabajo a tiempo completo,,,,,,,10702,,"{""biodiversity_belief"":""Sí""}",,[0],,,,,,,,,,,,,,,,,,,,,,6904d131854900d7f8d26db6,6904d1572f0670fe09aab0e8
,,,Chrome,141.0.0.0,,,,,,,html-button-response,8,58688,0.0-8.0,1,1,2025-10-31 15:10:18,380adedbb17a93fac604e03de424270a,79.116.250.121,"Mozilla/5.0 (Macintosh; Intel Mac OS X 10_15_7) AppleWebKit/537.36 (KHTML, like Gecko) Chrome/141.0.0.0 Safari/537.36",Macintosh,OS X,10_15_7,https://pmnk2gty5u.cognition.run/?PROLIFIC_PID=5c883760e0f6e50017f0abbb&STUDY_ID=6904d131854900d7f8d26db6&SESSION_ID=6904d1572f0670fe09aab0e8,"es-ES,es;q=0.9",,5c883760e0f6e50017f0abbb,v0ThG0kgG2vt,5c883760e0f6e50017f0abbb,2955,1574,0,33,Sí,Pareja de hecho o relación estable no matrimonial,Hombre,Apartamento o piso,2 personas,Ninguna,Grado o diplomatura,3001€ - 4000€,Trabajo a tiempo completo,,,,,,,6866,"<h2>Sobre tu respuesta</h2><p>Has indicado que <strong>SÍ</strong> crees que el tipo de vegetación o su manejo tengan un efecto sobre la biodiversidad. <br>Según estudios recientes, en efecto se ha observado que la biodiversidad aumenta en áreas con mayor cantidad de árboles combinados con arbustos y hierba, y cuanto menos se pode la cobertura herbácea.</p>",0,,,,,,,,,,,,,,,,,,,,,,,,6904d131854900d7f8d26db6,6904d1572f0670fe09aab0e8
,,,Chrome,141.0.0.0,,,,,,,survey-likert,9,68027,0.0-9.0,1,1,2025-10-31 15:10:18,380adedbb17a93fac604e03de424270a,79.116.250.121,"Mozilla/5.0 (Macintosh; Intel Mac OS X 10_15_7) AppleWebKit/537.36 (KHTML, like Gecko) Chrome/141.0.0.0 Safari/537.36",Macintosh,OS X,10_15_7,https://pmnk2gty5u.cognition.run/?PROLIFIC_PID=5c883760e0f6e50017f0abbb&STUDY_ID=6904d131854900d7f8d26db6&SESSION_ID=6904d1572f0670fe09aab0e8,"es-ES,es;q=0.9",,5c883760e0f6e50017f0abbb,v0ThG0kgG2vt,5c883760e0f6e50017f0abbb,2955,1574,0,33,Sí,Pareja de hecho o relación estable no matrimonial,Hombre,Apartamento o piso,2 personas,Ninguna,Grado o diplomatura,3001€ - 4000€,Trabajo a tiempo completo,,,,,,,9337,,"{""Q1"":2,""Q0"":1,""Q2"":0}",,"[1,0,2]",,,,,,,,,,,,,,,,,,,,,,6904d131854900d7f8d26db6,6904d1572f0670fe09aab0e8
,,,Chrome,141.0.0.0,,,,,,,html-button-response,10,82081,0.0-10.0,1,1,2025-10-31 15:10:18,380adedbb17a93fac604e03de424270a,79.116.250.121,"Mozilla/5.0 (Macintosh; Intel Mac OS X 10_15_7) AppleWebKit/537.36 (KHTML, like Gecko) Chrome/141.0.0.0 Safari/537.36",Macintosh,OS X,10_15_7,https://pmnk2gty5u.cognition.run/?PROLIFIC_PID=5c883760e0f6e50017f0abbb&STUDY_ID=6904d131854900d7f8d26db6&SESSION_ID=6904d1572f0670fe09aab0e8,"es-ES,es;q=0.9",,5c883760e0f6e50017f0abbb,v0ThG0kgG2vt,5c883760e0f6e50017f0abbb,2955,1574,0,33,Sí,Pareja de hecho o relación estable no matrimonial,Hombre,Apartamento o piso,2 personas,Ninguna,Grado o diplomatura,3001€ - 4000€,Trabajo a tiempo completo,,,,,,,,,,,,LSP,,,,,,,,,,,,,,,,,,,,,6904d131854900d7f8d26db6,6904d1572f0670fe09aab0e8
,,,Chrome,141.0.0.0,,,,,,,html-button-response,11,86082,0.0-11.0,1,1,2025-10-31 15:10:18,380adedbb17a93fac604e03de424270a,79.116.250.121,"Mozilla/5.0 (Macintosh; Intel Mac OS X 10_15_7) AppleWebKit/537.36 (KHTML, like Gecko) Chrome/141.0.0.0 Safari/537.36",Macintosh,OS X,10_15_7,https://pmnk2gty5u.cognition.run/?PROLIFIC_PID=5c883760e0f6e50017f0abbb&STUDY_ID=6904d131854900d7f8d26db6&SESSION_ID=6904d1572f0670fe09aab0e8,"es-ES,es;q=0.9",,5c883760e0f6e50017f0abbb,v0ThG0kgG2vt,5c883760e0f6e50017f0abbb,2955,1574,0,33,Sí,Pareja de hecho o relación estable no matrimonial,Hombre,Apartamento o piso,2 personas,Ninguna,Grado o diplomatura,3001€ - 4000€,Trabajo a tiempo completo,,,,,,,,,,,,,,,,,,,,,,,,,,,,,,,,,6904d131854900d7f8d26db6,6904d1572f0670fe09aab0e8
,,,Chrome,141.0.0.0,,,,,,,html-keyboard-response,12,86486,0.0-12.0-0.0,1,1,2025-10-31 15:10:18,380adedbb17a93fac604e03de424270a,79.116.250.121,"Mozilla/5.0 (Macintosh; Intel Mac OS X 10_15_7) AppleWebKit/537.36 (KHTML, like Gecko) Chrome/141.0.0.0 Safari/537.36",Macintosh,OS X,10_15_7,https://pmnk2gty5u.cognition.run/?PROLIFIC_PID=5c883760e0f6e50017f0abbb&STUDY_ID=6904d131854900d7f8d26db6&SESSION_ID=6904d1572f0670fe09aab0e8,"es-ES,es;q=0.9",,5c883760e0f6e50017f0abbb,v0ThG0kgG2vt,5c883760e0f6e50017f0abbb,2955,1574,0,33,Sí,Pareja de hecho o relación estable no matrimonial,Hombre,Apartamento o piso,2 personas,Ninguna,Grado o diplomatura,3001€ - 4000€,Trabajo a tiempo completo,,,,,,,null,"<div style=""display: flex; justify-content: center; align-items: center; height: 100vh;"">
        <div class=""loader""></div></div>",null,,,,fixation,,,,,,,,,,,,,,,,,,,,6904d131854900d7f8d26db6,6904d1572f0670fe09aab0e8
,,,Chrome,141.0.0.0,,,,,,,html-button-response,13,95165,0.0-12.0-1.0,1,1,2025-10-31 15:10:18,380adedbb17a93fac604e03de424270a,79.116.250.121,"Mozilla/5.0 (Macintosh; Intel Mac OS X 10_15_7) AppleWebKit/537.36 (KHTML, like Gecko) Chrome/141.0.0.0 Safari/537.36",Macintosh,OS X,10_15_7,https://pmnk2gty5u.cognition.run/?PROLIFIC_PID=5c883760e0f6e50017f0abbb&STUDY_ID=6904d131854900d7f8d26db6&SESSION_ID=6904d1572f0670fe09aab0e8,"es-ES,es;q=0.9",,5c883760e0f6e50017f0abbb,v0ThG0kgG2vt,5c883760e0f6e50017f0abbb,2955,1574,0,33,Sí,Pareja de hecho o relación estable no matrimonial,Hombre,Apartamento o piso,2 personas,Ninguna,Grado o diplomatura,3001€ - 4000€,Trabajo a tiempo completo,,,,,,,8679,,,,,right,choice,img/photos/LSH1.png,img/photos/LSP4.png,img/photos/structure5.png,img/photos/structure1.png,img/photos/pruning2.png,img/photos/pruning3.png,Dispersas,Concentradas,"Solo hierba, sin árboles ni arbustos","Muchos árboles, con hierba y arbustos",Hierba y arbustos podados parcialmente,Hierba y arbustos podados completamente,Enfrente de casa,De 10 a 20 minutos,650,625,40,110,,6904d131854900d7f8d26db6,6904d1572f0670fe09aab0e8
,,,Chrome,141.0.0.0,,,,,,,html-keyboard-response,14,95419,0.0-12.0-0.1,1,1,2025-10-31 15:10:18,380adedbb17a93fac604e03de424270a,79.116.250.121,"Mozilla/5.0 (Macintosh; Intel Mac OS X 10_15_7) AppleWebKit/537.36 (KHTML, like Gecko) Chrome/141.0.0.0 Safari/537.36",Macintosh,OS X,10_15_7,https://pmnk2gty5u.cognition.run/?PROLIFIC_PID=5c883760e0f6e50017f0abbb&STUDY_ID=6904d131854900d7f8d26db6&SESSION_ID=6904d1572f0670fe09aab0e8,"es-ES,es;q=0.9",,5c883760e0f6e50017f0abbb,v0ThG0kgG2vt,5c883760e0f6e50017f0abbb,2955,1574,0,33,Sí,Pareja de hecho o relación estable no matrimonial,Hombre,Apartamento o piso,2 personas,Ninguna,Grado o diplomatura,3001€ - 4000€,Trabajo a tiempo completo,,,,,,,null,"<div style=""display: flex; justify-content: center; align-items: center; height: 100vh;"">
        <div class=""loader""></div></div>",null,,,,fixation,,,,,,,,,,,,,,,,,,,,6904d131854900d7f8d26db6,6904d1572f0670fe09aab0e8
,,,Chrome,141.0.0.0,,,,,,,html-button-response,15,102705,0.0-12.0-1.1,1,1,2025-10-31 15:10:18,380adedbb17a93fac604e03de424270a,79.116.250.121,"Mozilla/5.0 (Macintosh; Intel Mac OS X 10_15_7) AppleWebKit/537.36 (KHTML, like Gecko) Chrome/141.0.0.0 Safari/537.36",Macintosh,OS X,10_15_7,https://pmnk2gty5u.cognition.run/?PROLIFIC_PID=5c883760e0f6e50017f0abbb&STUDY_ID=6904d131854900d7f8d26db6&SESSION_ID=6904d1572f0670fe09aab0e8,"es-ES,es;q=0.9",,5c883760e0f6e50017f0abbb,v0ThG0kgG2vt,5c883760e0f6e50017f0abbb,2955,1574,0,33,Sí,Pareja de hecho o relación estable no matrimonial,Hombre,Apartamento o piso,2 personas,Ninguna,Grado o diplomatura,3001€ - 4000€,Trabajo a tiempo completo,,,,,,,7286,,,,,left,choice,img/photos/LSH4.png,img/photos/LSP4.png,img/photos/structure1.png,img/photos/structure5.png,img/photos/pruning2.png,img/photos/pruning2.png,Dispersas,Concentradas,"Muchos árboles, con hierba y arbustos","Solo hierba, sin árboles ni arbustos",Hierba y arbustos podados parcialmente,Hierba y arbustos podados parcialmente,De 10 a 20 minutos,De 10 a 20 minutos,450,600,40,120,,6904d131854900d7f8d26db6,6904d1572f0670fe09aab0e8
,,,Chrome,141.0.0.0,,,,,,,html-keyboard-response,16,102958,0.0-12.0-0.2,1,1,2025-10-31 15:10:18,380adedbb17a93fac604e03de424270a,79.116.250.121,"Mozilla/5.0 (Macintosh; Intel Mac OS X 10_15_7) AppleWebKit/537.36 (KHTML, like Gecko) Chrome/141.0.0.0 Safari/537.36",Macintosh,OS X,10_15_7,https://pmnk2gty5u.cognition.run/?PROLIFIC_PID=5c883760e0f6e50017f0abbb&STUDY_ID=6904d131854900d7f8d26db6&SESSION_ID=6904d1572f0670fe09aab0e8,"es-ES,es;q=0.9",,5c883760e0f6e50017f0abbb,v0ThG0kgG2vt,5c883760e0f6e50017f0abbb,2955,1574,0,33,Sí,Pareja de hecho o relación estable no matrimonial,Hombre,Apartamento o piso,2 personas,Ninguna,Grado o diplomatura,3001€ - 4000€,Trabajo a tiempo completo,,,,,,,null,"<div style=""display: flex; justify-content: center; align-items: center; height: 100vh;"">
        <div class=""loader""></div></div>",null,,,,fixation,,,,,,,,,,,,,,,,,,,,6904d131854900d7f8d26db6,6904d1572f0670fe09aab0e8
,,,Chrome,141.0.0.0,,,,,,,html-button-response,17,109406,0.0-12.0-1.2,1,1,2025-10-31 15:10:18,380adedbb17a93fac604e03de424270a,79.116.250.121,"Mozilla/5.0 (Macintosh; Intel Mac OS X 10_15_7) AppleWebKit/537.36 (KHTML, like Gecko) Chrome/141.0.0.0 Safari/537.36",Macintosh,OS X,10_15_7,https://pmnk2gty5u.cognition.run/?PROLIFIC_PID=5c883760e0f6e50017f0abbb&STUDY_ID=6904d131854900d7f8d26db6&SESSION_ID=6904d1572f0670fe09aab0e8,"es-ES,es;q=0.9",,5c883760e0f6e50017f0abbb,v0ThG0kgG2vt,5c883760e0f6e50017f0abbb,2955,1574,0,33,Sí,Pareja de hecho o relación estable no matrimonial,Hombre,Apartamento o piso,2 personas,Ninguna,Grado o diplomatura,3001€ - 4000€,Trabajo a tiempo completo,,,,,,,6448,,,,,right,choice,img/photos/LSH4.png,img/photos/LSP1.png,img/photos/structure5.png,img/photos/structure4.png,img/photos/pruning1.png,img/photos/pruning3.png,Dispersas,Concentradas,"Solo hierba, sin árboles ni arbustos","Sin árboles, solo hierba y arbustos",Hierba y arbustos sin podar,Hierba y arbustos podados completamente,De 10 a 20 minutos,Enfrente de casa,625,425,70,70,,6904d131854900d7f8d26db6,6904d1572f0670fe09aab0e8
,,,Chrome,141.0.0.0,,,,,,,html-keyboard-response,18,109808,0.0-12.0-0.3,1,1,2025-10-31 15:10:18,380adedbb17a93fac604e03de424270a,79.116.250.121,"Mozilla/5.0 (Macintosh; Intel Mac OS X 10_15_7) AppleWebKit/537.36 (KHTML, like Gecko) Chrome/141.0.0.0 Safari/537.36",Macintosh,OS X,10_15_7,https://pmnk2gty5u.cognition.run/?PROLIFIC_PID=5c883760e0f6e50017f0abbb&STUDY_ID=6904d131854900d7f8d26db6&SESSION_ID=6904d1572f0670fe09aab0e8,"es-ES,es;q=0.9",,5c883760e0f6e50017f0abbb,v0ThG0kgG2vt,5c883760e0f6e50017f0abbb,2955,1574,0,33,Sí,Pareja de hecho o relación estable no matrimonial,Hombre,Apartamento o piso,2 personas,Ninguna,Grado o diplomatura,3001€ - 4000€,Trabajo a tiempo completo,,,,,,,null,"<div style=""display: flex; justify-content: center; align-items: center; height: 100vh;"">
        <div class=""loader""></div></div>",null,,,,fixation,,,,,,,,,,,,,,,,,,,,6904d131854900d7f8d26db6,6904d1572f0670fe09aab0e8
,,,Chrome,141.0.0.0,,,,,,,html-button-response,19,114928,0.0-12.0-1.3,1,1,2025-10-31 15:10:18,380adedbb17a93fac604e03de424270a,79.116.250.121,"Mozilla/5.0 (Macintosh; Intel Mac OS X 10_15_7) AppleWebKit/537.36 (KHTML, like Gecko) Chrome/141.0.0.0 Safari/537.36",Macintosh,OS X,10_15_7,https://pmnk2gty5u.cognition.run/?PROLIFIC_PID=5c883760e0f6e50017f0abbb&STUDY_ID=6904d131854900d7f8d26db6&SESSION_ID=6904d1572f0670fe09aab0e8,"es-ES,es;q=0.9",,5c883760e0f6e50017f0abbb,v0ThG0kgG2vt,5c883760e0f6e50017f0abbb,2955,1574,0,33,Sí,Pareja de hecho o relación estable no matrimonial,Hombre,Apartamento o piso,2 personas,Ninguna,Grado o diplomatura,3001€ - 4000€,Trabajo a tiempo completo,,,,,,,5119,,,,,left,choice,img/photos/LSP1.png,img/photos/LSH4.png,img/photos/structure1.png,img/photos/structure2.png,img/photos/pruning3.png,img/photos/pruning3.png,Concentradas,Dispersas,"Muchos árboles, con hierba y arbustos","Árboles diseminados, con hierba y arbustos",Hierba y arbustos podados completamente,Hierba y arbustos podados completamente,Enfrente de casa,De 10 a 20 minutos,800,650,90,90,,6904d131854900d7f8d26db6,6904d1572f0670fe09aab0e8
,,,Chrome,141.0.0.0,,,,,,,html-keyboard-response,20,115331,0.0-12.0-0.4,1,1,2025-10-31 15:10:18,380adedbb17a93fac604e03de424270a,79.116.250.121,"Mozilla/5.0 (Macintosh; Intel Mac OS X 10_15_7) AppleWebKit/537.36 (KHTML, like Gecko) Chrome/141.0.0.0 Safari/537.36",Macintosh,OS X,10_15_7,https://pmnk2gty5u.cognition.run/?PROLIFIC_PID=5c883760e0f6e50017f0abbb&STUDY_ID=6904d131854900d7f8d26db6&SESSION_ID=6904d1572f0670fe09aab0e8,"es-ES,es;q=0.9",,5c883760e0f6e50017f0abbb,v0ThG0kgG2vt,5c883760e0f6e50017f0abbb,2955,1574,0,33,Sí,Pareja de hecho o relación estable no matrimonial,Hombre,Apartamento o piso,2 personas,Ninguna,Grado o diplomatura,3001€ - 4000€,Trabajo a tiempo completo,,,,,,,null,"<div style=""display: flex; justify-content: center; align-items: center; height: 100vh;"">
        <div class=""loader""></div></div>",null,,,,fixation,,,,,,,,,,,,,,,,,,,,6904d131854900d7f8d26db6,6904d1572f0670fe09aab0e8
,,,Chrome,141.0.0.0,,,,,,,html-button-response,21,118384,0.0-12.0-1.4,1,1,2025-10-31 15:10:18,380adedbb17a93fac604e03de424270a,79.116.250.121,"Mozilla/5.0 (Macintosh; Intel Mac OS X 10_15_7) AppleWebKit/537.36 (KHTML, like Gecko) Chrome/141.0.0.0 Safari/537.36",Macintosh,OS X,10_15_7,https://pmnk2gty5u.cognition.run/?PROLIFIC_PID=5c883760e0f6e50017f0abbb&STUDY_ID=6904d131854900d7f8d26db6&SESSION_ID=6904d1572f0670fe09aab0e8,"es-ES,es;q=0.9",,5c883760e0f6e50017f0abbb,v0ThG0kgG2vt,5c883760e0f6e50017f0abbb,2955,1574,0,33,Sí,Pareja de hecho o relación estable no matrimonial,Hombre,Apartamento o piso,2 personas,Ninguna,Grado o diplomatura,3001€ - 4000€,Trabajo a tiempo completo,,,,,,,3053,,,,,left,choice,img/photos/LSH3.png,img/photos/LSP3.png,img/photos/structure1.png,img/photos/structure1.png,img/photos/pruning2.png,img/photos/pruning3.png,Dispersas,Concentradas,"Muchos árboles, con hierba y arbustos","Muchos árboles, con hierba y arbustos",Hierba y arbustos podados parcialmente,Hierba y arbustos podados completamente,De 5 a 10 minutos,De 5 a 10 minutos,475,725,90,110,,6904d131854900d7f8d26db6,6904d1572f0670fe09aab0e8
,,,Chrome,141.0.0.0,,,,,,,html-keyboard-response,22,118787,0.0-12.0-0.5,1,1,2025-10-31 15:10:18,380adedbb17a93fac604e03de424270a,79.116.250.121,"Mozilla/5.0 (Macintosh; Intel Mac OS X 10_15_7) AppleWebKit/537.36 (KHTML, like Gecko) Chrome/141.0.0.0 Safari/537.36",Macintosh,OS X,10_15_7,https://pmnk2gty5u.cognition.run/?PROLIFIC_PID=5c883760e0f6e50017f0abbb&STUDY_ID=6904d131854900d7f8d26db6&SESSION_ID=6904d1572f0670fe09aab0e8,"es-ES,es;q=0.9",,5c883760e0f6e50017f0abbb,v0ThG0kgG2vt,5c883760e0f6e50017f0abbb,2955,1574,0,33,Sí,Pareja de hecho o relación estable no matrimonial,Hombre,Apartamento o piso,2 personas,Ninguna,Grado o diplomatura,3001€ - 4000€,Trabajo a tiempo completo,,,,,,,null,"<div style=""display: flex; justify-content: center; align-items: center; height: 100vh;"">
        <div class=""loader""></div></div>",null,,,,fixation,,,,,,,,,,,,,,,,,,,,6904d131854900d7f8d26db6,6904d1572f0670fe09aab0e8
,,,Chrome,141.0.0.0,,,,,,,html-button-response,23,127775,0.0-12.0-1.5,1,1,2025-10-31 15:10:18,380adedbb17a93fac604e03de424270a,79.116.250.121,"Mozilla/5.0 (Macintosh; Intel Mac OS X 10_15_7) AppleWebKit/537.36 (KHTML, like Gecko) Chrome/141.0.0.0 Safari/537.36",Macintosh,OS X,10_15_7,https://pmnk2gty5u.cognition.run/?PROLIFIC_PID=5c883760e0f6e50017f0abbb&STUDY_ID=6904d131854900d7f8d26db6&SESSION_ID=6904d1572f0670fe09aab0e8,"es-ES,es;q=0.9",,5c883760e0f6e50017f0abbb,v0ThG0kgG2vt,5c883760e0f6e50017f0abbb,2955,1574,0,33,Sí,Pareja de hecho o relación estable no matrimonial,Hombre,Apartamento o piso,2 personas,Ninguna,Grado o diplomatura,3001€ - 4000€,Trabajo a tiempo completo,,,,,,,8988,,,,,right,choice,img/photos/LSH2.png,img/photos/LSP4.png,img/photos/structure5.png,img/photos/structure3.png,img/photos/pruning1.png,img/photos/pruning1.png,Dispersas,Concentradas,"Solo hierba, sin árboles ni arbustos","Algunos árboles, con hierba y arbustos",Hierba y arbustos sin podar,Hierba y arbustos sin podar,Menos de 5 minutos,De 10 a 20 minutos,575,400,70,60,,6904d131854900d7f8d26db6,6904d1572f0670fe09aab0e8
,,,Chrome,141.0.0.0,,,,,,,survey-multi-choice,24,130956,0.0-13.0,1,1,2025-10-31 15:10:18,380adedbb17a93fac604e03de424270a,79.116.250.121,"Mozilla/5.0 (Macintosh; Intel Mac OS X 10_15_7) AppleWebKit/537.36 (KHTML, like Gecko) Chrome/141.0.0.0 Safari/537.36",Macintosh,OS X,10_15_7,https://pmnk2gty5u.cognition.run/?PROLIFIC_PID=5c883760e0f6e50017f0abbb&STUDY_ID=6904d131854900d7f8d26db6&SESSION_ID=6904d1572f0670fe09aab0e8,"es-ES,es;q=0.9",,5c883760e0f6e50017f0abbb,v0ThG0kgG2vt,5c883760e0f6e50017f0abbb,2955,1574,0,33,Sí,Pareja de hecho o relación estable no matrimonial,Hombre,Apartamento o piso,2 personas,Ninguna,Grado o diplomatura,3001€ - 4000€,Trabajo a tiempo completo,,,,,,,3178,,"{""marital_status"":""Pareja de hecho o relación estable no matrimonial""}",,[0],,,,,,,,,,,,,,,,,,,,,,6904d131854900d7f8d26db6,6904d1572f0670fe09aab0e8
,,,Chrome,141.0.0.0,,,,,,,survey-text,25,133797,0.0-14.0-0.0,1,1,2025-10-31 15:10:18,380adedbb17a93fac604e03de424270a,79.116.250.121,"Mozilla/5.0 (Macintosh; Intel Mac OS X 10_15_7) AppleWebKit/537.36 (KHTML, like Gecko) Chrome/141.0.0.0 Safari/537.36",Macintosh,OS X,10_15_7,https://pmnk2gty5u.cognition.run/?PROLIFIC_PID=5c883760e0f6e50017f0abbb&STUDY_ID=6904d131854900d7f8d26db6&SESSION_ID=6904d1572f0670fe09aab0e8,"es-ES,es;q=0.9",,5c883760e0f6e50017f0abbb,v0ThG0kgG2vt,5c883760e0f6e50017f0abbb,2955,1574,0,33,Sí,Pareja de hecho o relación estable no matrimonial,Hombre,Apartamento o piso,2 personas,Ninguna,Grado o diplomatura,3001€ - 4000€,Trabajo a tiempo completo,,,,,,,2823,,"{""age"":""36""}",,,,,,,,,,,,,,,,,,,,,,,true,6904d131854900d7f8d26db6,6904d1572f0670fe09aab0e8
,,,Chrome,141.0.0.0,,,,,,,survey-multi-choice,26,135792,0.0-15.0,1,1,2025-10-31 15:10:18,380adedbb17a93fac604e03de424270a,79.116.250.121,"Mozilla/5.0 (Macintosh; Intel Mac OS X 10_15_7) AppleWebKit/537.36 (KHTML, like Gecko) Chrome/141.0.0.0 Safari/537.36",Macintosh,OS X,10_15_7,https://pmnk2gty5u.cognition.run/?PROLIFIC_PID=5c883760e0f6e50017f0abbb&STUDY_ID=6904d131854900d7f8d26db6&SESSION_ID=6904d1572f0670fe09aab0e8,"es-ES,es;q=0.9",,5c883760e0f6e50017f0abbb,v0ThG0kgG2vt,5c883760e0f6e50017f0abbb,2955,1574,0,33,Sí,Pareja de hecho o relación estable no matrimonial,Hombre,Apartamento o piso,2 personas,Ninguna,Grado o diplomatura,3001€ - 4000€,Trabajo a tiempo completo,,,,,,,1993,,"{""gender"":""Hombre""}",,[0],,,,,,,,,,,,,,,,,,,,,,6904d131854900d7f8d26db6,6904d1572f0670fe09aab0e8
,,,Chrome,141.0.0.0,,,,,,,survey-multi-choice,27,140962,0.0-16.0,1,1,2025-10-31 15:10:18,380adedbb17a93fac604e03de424270a,79.116.250.121,"Mozilla/5.0 (Macintosh; Intel Mac OS X 10_15_7) AppleWebKit/537.36 (KHTML, like Gecko) Chrome/141.0.0.0 Safari/537.36",Macintosh,OS X,10_15_7,https://pmnk2gty5u.cognition.run/?PROLIFIC_PID=5c883760e0f6e50017f0abbb&STUDY_ID=6904d131854900d7f8d26db6&SESSION_ID=6904d1572f0670fe09aab0e8,"es-ES,es;q=0.9",,5c883760e0f6e50017f0abbb,v0ThG0kgG2vt,5c883760e0f6e50017f0abbb,2955,1574,0,33,Sí,Pareja de hecho o relación estable no matrimonial,Hombre,Apartamento o piso,2 personas,Ninguna,Grado o diplomatura,3001€ - 4000€,Trabajo a tiempo completo,,,,,,,5168,,"{""dwelling"":""Apartamento o piso"",""ownership"":""Alquilada"",""tamuni"":""Zona urbana (más de 50.000 habitantes)""}",,"[0,1,2]",,,,,,,,,,,,,,,,,,,,,,6904d131854900d7f8d26db6,6904d1572f0670fe09aab0e8
,,,Chrome,141.0.0.0,,,,,,,survey-multi-choice,28,148046,0.0-17.0,1,1,2025-10-31 15:10:18,380adedbb17a93fac604e03de424270a,79.116.250.121,"Mozilla/5.0 (Macintosh; Intel Mac OS X 10_15_7) AppleWebKit/537.36 (KHTML, like Gecko) Chrome/141.0.0.0 Safari/537.36",Macintosh,OS X,10_15_7,https://pmnk2gty5u.cognition.run/?PROLIFIC_PID=5c883760e0f6e50017f0abbb&STUDY_ID=6904d131854900d7f8d26db6&SESSION_ID=6904d1572f0670fe09aab0e8,"es-ES,es;q=0.9",,5c883760e0f6e50017f0abbb,v0ThG0kgG2vt,5c883760e0f6e50017f0abbb,2955,1574,0,33,Sí,Pareja de hecho o relación estable no matrimonial,Hombre,Apartamento o piso,2 personas,Ninguna,Grado o diplomatura,3001€ - 4000€,Trabajo a tiempo completo,,,,,,,7083,,"{""adults"":""2 personas"",""children"":""Ninguna""}",,"[0,1]",,,,,,,,,,,,,,,,,,,,,,6904d131854900d7f8d26db6,6904d1572f0670fe09aab0e8
,,,Chrome,141.0.0.0,,,,,,,survey-multi-choice,29,150299,0.0-18.0,1,1,2025-10-31 15:10:18,380adedbb17a93fac604e03de424270a,79.116.250.121,"Mozilla/5.0 (Macintosh; Intel Mac OS X 10_15_7) AppleWebKit/537.36 (KHTML, like Gecko) Chrome/141.0.0.0 Safari/537.36",Macintosh,OS X,10_15_7,https://pmnk2gty5u.cognition.run/?PROLIFIC_PID=5c883760e0f6e50017f0abbb&STUDY_ID=6904d131854900d7f8d26db6&SESSION_ID=6904d1572f0670fe09aab0e8,"es-ES,es;q=0.9",,5c883760e0f6e50017f0abbb,v0ThG0kgG2vt,5c883760e0f6e50017f0abbb,2955,1574,0,33,Sí,Pareja de hecho o relación estable no matrimonial,Hombre,Apartamento o piso,2 personas,Ninguna,Grado o diplomatura,3001€ - 4000€,Trabajo a tiempo completo,,,,,,,2251,,"{""education"":""Grado o diplomatura""}",,[0],,,,,,,,,,,,,,,,,,,,,,6904d131854900d7f8d26db6,6904d1572f0670fe09aab0e8
,,,Chrome,141.0.0.0,,,,,,,survey-multi-choice,30,160454,0.0-19.0,1,1,2025-10-31 15:10:18,380adedbb17a93fac604e03de424270a,79.116.250.121,"Mozilla/5.0 (Macintosh; Intel Mac OS X 10_15_7) AppleWebKit/537.36 (KHTML, like Gecko) Chrome/141.0.0.0 Safari/537.36",Macintosh,OS X,10_15_7,https://pmnk2gty5u.cognition.run/?PROLIFIC_PID=5c883760e0f6e50017f0abbb&STUDY_ID=6904d131854900d7f8d26db6&SESSION_ID=6904d1572f0670fe09aab0e8,"es-ES,es;q=0.9",,5c883760e0f6e50017f0abbb,v0ThG0kgG2vt,5c883760e0f6e50017f0abbb,2955,1574,0,33,Sí,Pareja de hecho o relación estable no matrimonial,Hombre,Apartamento o piso,2 personas,Ninguna,Grado o diplomatura,3001€ - 4000€,Trabajo a tiempo completo,,,,,,,10152,,"{""occupation"":""Trabajo a tiempo completo"",""income"":""3001€ - 4000€""}",,"[0,1]",,,,,,,,,,,,,,,,,,,,,,6904d131854900d7f8d26db6,6904d1572f0670fe09aab0e8
,,,Chrome,141.0.0.0,,,,,,,html-slider-response,31,164617,0.0-20.0,1,1,2025-10-31 15:10:18,380adedbb17a93fac604e03de424270a,79.116.250.121,"Mozilla/5.0 (Macintosh; Intel Mac OS X 10_15_7) AppleWebKit/537.36 (KHTML, like Gecko) Chrome/141.0.0.0 Safari/537.36",Macintosh,OS X,10_15_7,https://pmnk2gty5u.cognition.run/?PROLIFIC_PID=5c883760e0f6e50017f0abbb&STUDY_ID=6904d131854900d7f8d26db6&SESSION_ID=6904d1572f0670fe09aab0e8,"es-ES,es;q=0.9",,5c883760e0f6e50017f0abbb,v0ThG0kgG2vt,5c883760e0f6e50017f0abbb,2955,1574,0,33,Sí,Pareja de hecho o relación estable no matrimonial,Hombre,Apartamento o piso,2 personas,Ninguna,Grado o diplomatura,3001€ - 4000€,Trabajo a tiempo completo,,,,,,,4162,"<div style=""width:500px; text-align:center; margin: 0 auto;"">
        <p>A menudo la gente habla de ""izquierda"" y ""derecha"" para hablar de su orientación política</p>
        <p>Utiliza el siguiente deslizador para indicar dónde te sitúas en este espectro político.</p>
        </div>",36,50,,,,,,,,,,,,,,,,,,,,,,,6904d131854900d7f8d26db6,6904d1572f0670fe09aab0e8
,,,Chrome,141.0.0.0,,,,,,,survey-text,32,165898,0.0-21.0,1,1,2025-10-31 15:10:18,380adedbb17a93fac604e03de424270a,79.116.250.121,"Mozilla/5.0 (Macintosh; Intel Mac OS X 10_15_7) AppleWebKit/537.36 (KHTML, like Gecko) Chrome/141.0.0.0 Safari/537.36",Macintosh,OS X,10_15_7,https://pmnk2gty5u.cognition.run/?PROLIFIC_PID=5c883760e0f6e50017f0abbb&STUDY_ID=6904d131854900d7f8d26db6&SESSION_ID=6904d1572f0670fe09aab0e8,"es-ES,es;q=0.9",,5c883760e0f6e50017f0abbb,v0ThG0kgG2vt,5c883760e0f6e50017f0abbb,2955,1574,0,33,Sí,Pareja de hecho o relación estable no matrimonial,Hombre,Apartamento o piso,2 personas,Ninguna,Grado o diplomatura,3001€ - 4000€,Trabajo a tiempo completo,,,,,,,1274,,"{""remarks"":""""}",,,,,,,,,,,,,,,,,,,,,,,,6904d131854900d7f8d26db6,6904d1572f0670fe09aab0e8
,,,Chrome,141.0.0.0,,,,,,,html-button-response,33,168883,0.0-22.0,1,1,2025-10-31 15:10:18,380adedbb17a93fac604e03de424270a,79.116.250.121,"Mozilla/5.0 (Macintosh; Intel Mac OS X 10_15_7) AppleWebKit/537.36 (KHTML, like Gecko) Chrome/141.0.0.0 Safari/537.36",Macintosh,OS X,10_15_7,https://pmnk2gty5u.cognition.run/?PROLIFIC_PID=5c883760e0f6e50017f0abbb&STUDY_ID=6904d131854900d7f8d26db6&SESSION_ID=6904d1572f0670fe09aab0e8,"es-ES,es;q=0.9",,5c883760e0f6e50017f0abbb,v0ThG0kgG2vt,5c883760e0f6e50017f0abbb,2955,1574,0,33,Sí,Pareja de hecho o relación estable no matrimonial,Hombre,Apartamento o piso,2 personas,Ninguna,Grado o diplomatura,3001€ - 4000€,Trabajo a tiempo completo,,,,,,,2984,"
        <h1>¡Gracias por participar en este experimento!</h1>
        El propósito de este estudio es examinar la importancia de las zonas verdes en la población. 
        Si tienes más preguntas, no dude en contactarnos por correo a jorgesuarez@ugr.es",0,,,,,,,,,,,,,,,,,,,,,,,,6904d131854900d7f8d26db6,6904d1572f0670fe09aab0e8
1920,919,true,Chrome,141.0.0.0,false,Windows 10,true,60.44,false,true,browser-check,0,1013,0.0-0.0,11,1,2025-10-31 15:15:22,380adedbb17a93fac604e03de424270a,79.117.156.197,"Mozilla/5.0 (Windows NT 10.0; Win64; x64) AppleWebKit/537.36 (KHTML, like Gecko) Chrome/141.0.0.0 Safari/537.36",WebKit,Windows,10.0,https://pmnk2gty5u.cognition.run/?PROLIFIC_PID=603533290576853eefd64ed8&STUDY_ID=6904d131854900d7f8d26db6&SESSION_ID=6904d2876ca0d6bb3ac19db1,"es-ES,es;q=0.9,ca-ES;q=0.8,ca;q=0.7,en;q=0.6",,603533290576853eefd64ed8,sgkLlEIxSWlz,603533290576853eefd64ed8,1920,919,0,33,Sí,Casado/a,Hombre,Apartamento o piso,2 personas,3 niños/as,Formación profesional o técnica,3001€ - 4000€,Trabajo a tiempo completo,,,,,,,,,,,,,,,,,,,,,,,,,,,,,,,,,6904d131854900d7f8d26db6,6904d2876ca0d6bb3ac19db1
,,,Chrome,141.0.0.0,,,,,,,preload,1,14247,0.0-1.0,11,1,2025-10-31 15:15:22,380adedbb17a93fac604e03de424270a,79.117.156.197,"Mozilla/5.0 (Windows NT 10.0; Win64; x64) AppleWebKit/537.36 (KHTML, like Gecko) Chrome/141.0.0.0 Safari/537.36",WebKit,Windows,10.0,https://pmnk2gty5u.cognition.run/?PROLIFIC_PID=603533290576853eefd64ed8&STUDY_ID=6904d131854900d7f8d26db6&SESSION_ID=6904d2876ca0d6bb3ac19db1,"es-ES,es;q=0.9,ca-ES;q=0.8,ca;q=0.7,en;q=0.6",,603533290576853eefd64ed8,sgkLlEIxSWlz,603533290576853eefd64ed8,1920,919,0,33,Sí,Casado/a,Hombre,Apartamento o piso,2 personas,3 niños/as,Formación profesional o técnica,3001€ - 4000€,Trabajo a tiempo completo,,true,false,[],[],[],,,,,,,,,,,,,,,,,,,,,,,,,,,6904d131854900d7f8d26db6,6904d2876ca0d6bb3ac19db1
,,,Chrome,141.0.0.0,,,,,,,html-button-response,2,22898,0.0-2.0,11,1,2025-10-31 15:15:22,380adedbb17a93fac604e03de424270a,79.117.156.197,"Mozilla/5.0 (Windows NT 10.0; Win64; x64) AppleWebKit/537.36 (KHTML, like Gecko) Chrome/141.0.0.0 Safari/537.36",WebKit,Windows,10.0,https://pmnk2gty5u.cognition.run/?PROLIFIC_PID=603533290576853eefd64ed8&STUDY_ID=6904d131854900d7f8d26db6&SESSION_ID=6904d2876ca0d6bb3ac19db1,"es-ES,es;q=0.9,ca-ES;q=0.8,ca;q=0.7,en;q=0.6",,603533290576853eefd64ed8,sgkLlEIxSWlz,603533290576853eefd64ed8,1920,919,0,33,Sí,Casado/a,Hombre,Apartamento o piso,2 personas,3 niños/as,Formación profesional o técnica,3001€ - 4000€,Trabajo a tiempo completo,,,,,,,,,,,,,,,,,,,,,,,,,,,,,,,,,6904d131854900d7f8d26db6,6904d2876ca0d6bb3ac19db1
,,,Chrome,141.0.0.0,,,,,,,html-button-response,3,32619,0.0-3.0,11,1,2025-10-31 15:15:22,380adedbb17a93fac604e03de424270a,79.117.156.197,"Mozilla/5.0 (Windows NT 10.0; Win64; x64) AppleWebKit/537.36 (KHTML, like Gecko) Chrome/141.0.0.0 Safari/537.36",WebKit,Windows,10.0,https://pmnk2gty5u.cognition.run/?PROLIFIC_PID=603533290576853eefd64ed8&STUDY_ID=6904d131854900d7f8d26db6&SESSION_ID=6904d2876ca0d6bb3ac19db1,"es-ES,es;q=0.9,ca-ES;q=0.8,ca;q=0.7,en;q=0.6",,603533290576853eefd64ed8,sgkLlEIxSWlz,603533290576853eefd64ed8,1920,919,0,33,Sí,Casado/a,Hombre,Apartamento o piso,2 personas,3 niños/as,Formación profesional o técnica,3001€ - 4000€,Trabajo a tiempo completo,,,,,,,9717,"
    <p>En la imagen de debajo puedes ver una representación de diferentes maneras de sentirse conectado/a con la naturaleza.</p> 
    <p>Si A representa la opción menos conectada con la naturaleza y G la opción más conectada, ¿dónde te situarías tú?</p>
    <div id=""img-container"" style=""text-align: center; height: 60px; margin-top: 20px; margin-bottom:300px;"">
        <img src=""img/SiO.png"" alt=""Connection with nature"" style=""max-height:300px;"">
    </div>
    ",2,,,,,,,,,,,,,,,,,,,,,,,,6904d131854900d7f8d26db6,6904d2876ca0d6bb3ac19db1
,,,Chrome,141.0.0.0,,,,,,,html-slider-response,4,39488,0.0-4.0,11,1,2025-10-31 15:15:22,380adedbb17a93fac604e03de424270a,79.117.156.197,"Mozilla/5.0 (Windows NT 10.0; Win64; x64) AppleWebKit/537.36 (KHTML, like Gecko) Chrome/141.0.0.0 Safari/537.36",WebKit,Windows,10.0,https://pmnk2gty5u.cognition.run/?PROLIFIC_PID=603533290576853eefd64ed8&STUDY_ID=6904d131854900d7f8d26db6&SESSION_ID=6904d2876ca0d6bb3ac19db1,"es-ES,es;q=0.9,ca-ES;q=0.8,ca;q=0.7,en;q=0.6",,603533290576853eefd64ed8,sgkLlEIxSWlz,603533290576853eefd64ed8,1920,919,0,33,Sí,Casado/a,Hombre,Apartamento o piso,2 personas,3 niños/as,Formación profesional o técnica,3001€ - 4000€,Trabajo a tiempo completo,,,,,,,6862,"
    <p>Ahora, utiliza el siguiente botón deslizante para indicar <strong>cómo de importante es para ti estar en contacto con la naturaleza en tu vida diaria.</strong></p>
    ",33,50,,,,,,,,,,,,,,,,,,,,,,,6904d131854900d7f8d26db6,6904d2876ca0d6bb3ac19db1
,,,Chrome,141.0.0.0,,,,,,,html-button-response,5,43387,0.0-5.0,11,1,2025-10-31 15:15:22,380adedbb17a93fac604e03de424270a,79.117.156.197,"Mozilla/5.0 (Windows NT 10.0; Win64; x64) AppleWebKit/537.36 (KHTML, like Gecko) Chrome/141.0.0.0 Safari/537.36",WebKit,Windows,10.0,https://pmnk2gty5u.cognition.run/?PROLIFIC_PID=603533290576853eefd64ed8&STUDY_ID=6904d131854900d7f8d26db6&SESSION_ID=6904d2876ca0d6bb3ac19db1,"es-ES,es;q=0.9,ca-ES;q=0.8,ca;q=0.7,en;q=0.6",,603533290576853eefd64ed8,sgkLlEIxSWlz,603533290576853eefd64ed8,1920,919,0,33,Sí,Casado/a,Hombre,Apartamento o piso,2 personas,3 niños/as,Formación profesional o técnica,3001€ - 4000€,Trabajo a tiempo completo,,,,,,,3896,"
    <h2>Preferencias sobre el barrio</h2>
    <p>A continuación, encontrarás una serie de afirmaciones relacionadas con las características que valoras en un barrio o zona para vivir.</p>
    <p>Por favor, indica tu grado de acuerdo o desacuerdo con cada una de las siguientes afirmaciones utilizando la escala proporcionada.</p>
    ",0,,,,,,,,,,,,,,,,,,,,,,,,6904d131854900d7f8d26db6,6904d2876ca0d6bb3ac19db1
,,,Chrome,141.0.0.0,,,,,,,survey-likert,6,71782,0.0-6.0,11,1,2025-10-31 15:15:22,380adedbb17a93fac604e03de424270a,79.117.156.197,"Mozilla/5.0 (Windows NT 10.0; Win64; x64) AppleWebKit/537.36 (KHTML, like Gecko) Chrome/141.0.0.0 Safari/537.36",WebKit,Windows,10.0,https://pmnk2gty5u.cognition.run/?PROLIFIC_PID=603533290576853eefd64ed8&STUDY_ID=6904d131854900d7f8d26db6&SESSION_ID=6904d2876ca0d6bb3ac19db1,"es-ES,es;q=0.9,ca-ES;q=0.8,ca;q=0.7,en;q=0.6",,603533290576853eefd64ed8,sgkLlEIxSWlz,603533290576853eefd64ed8,1920,919,0,33,Sí,Casado/a,Hombre,Apartamento o piso,2 personas,3 niños/as,Formación profesional o técnica,3001€ - 4000€,Trabajo a tiempo completo,,,,,,,28388,,"{""Q6"":3,""Q3"":4,""Q8"":3,""Q5"":3,""Q7"":3,""Q4"":4,""Q0"":3,""Q2"":0,""Q1"":0}",,"[6,3,8,5,7,4,0,2,1]",,,,,,,,,,,,,,,,,,,,,,6904d131854900d7f8d26db6,6904d2876ca0d6bb3ac19db1
,,,Chrome,141.0.0.0,,,,,,,survey-multi-choice,7,82786,0.0-7.0,11,1,2025-10-31 15:15:22,380adedbb17a93fac604e03de424270a,79.117.156.197,"Mozilla/5.0 (Windows NT 10.0; Win64; x64) AppleWebKit/537.36 (KHTML, like Gecko) Chrome/141.0.0.0 Safari/537.36",WebKit,Windows,10.0,https://pmnk2gty5u.cognition.run/?PROLIFIC_PID=603533290576853eefd64ed8&STUDY_ID=6904d131854900d7f8d26db6&SESSION_ID=6904d2876ca0d6bb3ac19db1,"es-ES,es;q=0.9,ca-ES;q=0.8,ca;q=0.7,en;q=0.6",,603533290576853eefd64ed8,sgkLlEIxSWlz,603533290576853eefd64ed8,1920,919,0,33,Sí,Casado/a,Hombre,Apartamento o piso,2 personas,3 niños/as,Formación profesional o técnica,3001€ - 4000€,Trabajo a tiempo completo,,,,,,,11000,,"{""biodiversity_belief"":""Sí""}",,[0],,,,,,,,,,,,,,,,,,,,,,6904d131854900d7f8d26db6,6904d2876ca0d6bb3ac19db1
,,,Chrome,141.0.0.0,,,,,,,html-button-response,8,91664,0.0-8.0,11,1,2025-10-31 15:15:22,380adedbb17a93fac604e03de424270a,79.117.156.197,"Mozilla/5.0 (Windows NT 10.0; Win64; x64) AppleWebKit/537.36 (KHTML, like Gecko) Chrome/141.0.0.0 Safari/537.36",WebKit,Windows,10.0,https://pmnk2gty5u.cognition.run/?PROLIFIC_PID=603533290576853eefd64ed8&STUDY_ID=6904d131854900d7f8d26db6&SESSION_ID=6904d2876ca0d6bb3ac19db1,"es-ES,es;q=0.9,ca-ES;q=0.8,ca;q=0.7,en;q=0.6",,603533290576853eefd64ed8,sgkLlEIxSWlz,603533290576853eefd64ed8,1920,919,0,33,Sí,Casado/a,Hombre,Apartamento o piso,2 personas,3 niños/as,Formación profesional o técnica,3001€ - 4000€,Trabajo a tiempo completo,,,,,,,8875,"<h2>Sobre tu respuesta</h2><p>Has indicado que <strong>SÍ</strong> crees que el tipo de vegetación o su manejo tengan un efecto sobre la biodiversidad. <br>Según estudios recientes, en efecto se ha observado que la biodiversidad aumenta en áreas con mayor cantidad de árboles combinados con arbustos y hierba, y cuanto menos se pode la cobertura herbácea.</p>",0,,,,,,,,,,,,,,,,,,,,,,,,6904d131854900d7f8d26db6,6904d2876ca0d6bb3ac19db1
,,,Chrome,141.0.0.0,,,,,,,survey-likert,9,104699,0.0-9.0,11,1,2025-10-31 15:15:22,380adedbb17a93fac604e03de424270a,79.117.156.197,"Mozilla/5.0 (Windows NT 10.0; Win64; x64) AppleWebKit/537.36 (KHTML, like Gecko) Chrome/141.0.0.0 Safari/537.36",WebKit,Windows,10.0,https://pmnk2gty5u.cognition.run/?PROLIFIC_PID=603533290576853eefd64ed8&STUDY_ID=6904d131854900d7f8d26db6&SESSION_ID=6904d2876ca0d6bb3ac19db1,"es-ES,es;q=0.9,ca-ES;q=0.8,ca;q=0.7,en;q=0.6",,603533290576853eefd64ed8,sgkLlEIxSWlz,603533290576853eefd64ed8,1920,919,0,33,Sí,Casado/a,Hombre,Apartamento o piso,2 personas,3 niños/as,Formación profesional o técnica,3001€ - 4000€,Trabajo a tiempo completo,,,,,,,13032,,"{""Q0"":1,""Q2"":0,""Q1"":1}",,"[0,2,1]",,,,,,,,,,,,,,,,,,,,,,6904d131854900d7f8d26db6,6904d2876ca0d6bb3ac19db1
,,,Chrome,141.0.0.0,,,,,,,html-button-response,10,119892,0.0-10.0,11,1,2025-10-31 15:15:22,380adedbb17a93fac604e03de424270a,79.117.156.197,"Mozilla/5.0 (Windows NT 10.0; Win64; x64) AppleWebKit/537.36 (KHTML, like Gecko) Chrome/141.0.0.0 Safari/537.36",WebKit,Windows,10.0,https://pmnk2gty5u.cognition.run/?PROLIFIC_PID=603533290576853eefd64ed8&STUDY_ID=6904d131854900d7f8d26db6&SESSION_ID=6904d2876ca0d6bb3ac19db1,"es-ES,es;q=0.9,ca-ES;q=0.8,ca;q=0.7,en;q=0.6",,603533290576853eefd64ed8,sgkLlEIxSWlz,603533290576853eefd64ed8,1920,919,0,33,Sí,Casado/a,Hombre,Apartamento o piso,2 personas,3 niños/as,Formación profesional o técnica,3001€ - 4000€,Trabajo a tiempo completo,,,,,,,,,,,,LSH,,,,,,,,,,,,,,,,,,,,,6904d131854900d7f8d26db6,6904d2876ca0d6bb3ac19db1
,,,Chrome,141.0.0.0,,,,,,,html-button-response,11,127481,0.0-11.0,11,1,2025-10-31 15:15:22,380adedbb17a93fac604e03de424270a,79.117.156.197,"Mozilla/5.0 (Windows NT 10.0; Win64; x64) AppleWebKit/537.36 (KHTML, like Gecko) Chrome/141.0.0.0 Safari/537.36",WebKit,Windows,10.0,https://pmnk2gty5u.cognition.run/?PROLIFIC_PID=603533290576853eefd64ed8&STUDY_ID=6904d131854900d7f8d26db6&SESSION_ID=6904d2876ca0d6bb3ac19db1,"es-ES,es;q=0.9,ca-ES;q=0.8,ca;q=0.7,en;q=0.6",,603533290576853eefd64ed8,sgkLlEIxSWlz,603533290576853eefd64ed8,1920,919,0,33,Sí,Casado/a,Hombre,Apartamento o piso,2 personas,3 niños/as,Formación profesional o técnica,3001€ - 4000€,Trabajo a tiempo completo,,,,,,,,,,,,,,,,,,,,,,,,,,,,,,,,,6904d131854900d7f8d26db6,6904d2876ca0d6bb3ac19db1
,,,Chrome,141.0.0.0,,,,,,,html-keyboard-response,12,127734,0.0-12.0-0.0,11,1,2025-10-31 15:15:22,380adedbb17a93fac604e03de424270a,79.117.156.197,"Mozilla/5.0 (Windows NT 10.0; Win64; x64) AppleWebKit/537.36 (KHTML, like Gecko) Chrome/141.0.0.0 Safari/537.36",WebKit,Windows,10.0,https://pmnk2gty5u.cognition.run/?PROLIFIC_PID=603533290576853eefd64ed8&STUDY_ID=6904d131854900d7f8d26db6&SESSION_ID=6904d2876ca0d6bb3ac19db1,"es-ES,es;q=0.9,ca-ES;q=0.8,ca;q=0.7,en;q=0.6",,603533290576853eefd64ed8,sgkLlEIxSWlz,603533290576853eefd64ed8,1920,919,0,33,Sí,Casado/a,Hombre,Apartamento o piso,2 personas,3 niños/as,Formación profesional o técnica,3001€ - 4000€,Trabajo a tiempo completo,,,,,,,null,"<div style=""display: flex; justify-content: center; align-items: center; height: 100vh;"">
        <div class=""loader""></div></div>",null,,,,fixation,,,,,,,,,,,,,,,,,,,,6904d131854900d7f8d26db6,6904d2876ca0d6bb3ac19db1
,,,Chrome,141.0.0.0,,,,,,,html-button-response,13,139388,0.0-12.0-1.0,11,1,2025-10-31 15:15:22,380adedbb17a93fac604e03de424270a,79.117.156.197,"Mozilla/5.0 (Windows NT 10.0; Win64; x64) AppleWebKit/537.36 (KHTML, like Gecko) Chrome/141.0.0.0 Safari/537.36",WebKit,Windows,10.0,https://pmnk2gty5u.cognition.run/?PROLIFIC_PID=603533290576853eefd64ed8&STUDY_ID=6904d131854900d7f8d26db6&SESSION_ID=6904d2876ca0d6bb3ac19db1,"es-ES,es;q=0.9,ca-ES;q=0.8,ca;q=0.7,en;q=0.6",,603533290576853eefd64ed8,sgkLlEIxSWlz,603533290576853eefd64ed8,1920,919,0,33,Sí,Casado/a,Hombre,Apartamento o piso,2 personas,3 niños/as,Formación profesional o técnica,3001€ - 4000€,Trabajo a tiempo completo,,,,,,,11654,,,,,right,choice,img/photos/LSP5.png,img/photos/LSH1.png,img/photos/structure3.png,img/photos/structure3.png,img/photos/pruning3.png,img/photos/pruning1.png,Concentradas,Dispersas,"Algunos árboles, con hierba y arbustos","Algunos árboles, con hierba y arbustos",Hierba y arbustos podados completamente,Hierba y arbustos sin podar,20 minutos o más,Enfrente de casa,525,725,100,90,,6904d131854900d7f8d26db6,6904d2876ca0d6bb3ac19db1
,,,Chrome,141.0.0.0,,,,,,,html-keyboard-response,14,139641,0.0-12.0-0.1,11,1,2025-10-31 15:15:22,380adedbb17a93fac604e03de424270a,79.117.156.197,"Mozilla/5.0 (Windows NT 10.0; Win64; x64) AppleWebKit/537.36 (KHTML, like Gecko) Chrome/141.0.0.0 Safari/537.36",WebKit,Windows,10.0,https://pmnk2gty5u.cognition.run/?PROLIFIC_PID=603533290576853eefd64ed8&STUDY_ID=6904d131854900d7f8d26db6&SESSION_ID=6904d2876ca0d6bb3ac19db1,"es-ES,es;q=0.9,ca-ES;q=0.8,ca;q=0.7,en;q=0.6",,603533290576853eefd64ed8,sgkLlEIxSWlz,603533290576853eefd64ed8,1920,919,0,33,Sí,Casado/a,Hombre,Apartamento o piso,2 personas,3 niños/as,Formación profesional o técnica,3001€ - 4000€,Trabajo a tiempo completo,,,,,,,null,"<div style=""display: flex; justify-content: center; align-items: center; height: 100vh;"">
        <div class=""loader""></div></div>",null,,,,fixation,,,,,,,,,,,,,,,,,,,,6904d131854900d7f8d26db6,6904d2876ca0d6bb3ac19db1
,,,Chrome,141.0.0.0,,,,,,,html-button-response,15,152961,0.0-12.0-1.1,11,1,2025-10-31 15:15:22,380adedbb17a93fac604e03de424270a,79.117.156.197,"Mozilla/5.0 (Windows NT 10.0; Win64; x64) AppleWebKit/537.36 (KHTML, like Gecko) Chrome/141.0.0.0 Safari/537.36",WebKit,Windows,10.0,https://pmnk2gty5u.cognition.run/?PROLIFIC_PID=603533290576853eefd64ed8&STUDY_ID=6904d131854900d7f8d26db6&SESSION_ID=6904d2876ca0d6bb3ac19db1,"es-ES,es;q=0.9,ca-ES;q=0.8,ca;q=0.7,en;q=0.6",,603533290576853eefd64ed8,sgkLlEIxSWlz,603533290576853eefd64ed8,1920,919,0,33,Sí,Casado/a,Hombre,Apartamento o piso,2 personas,3 niños/as,Formación profesional o técnica,3001€ - 4000€,Trabajo a tiempo completo,,,,,,,13320,,,,,right,choice,img/photos/LSH4.png,img/photos/LSP2.png,img/photos/structure5.png,img/photos/structure5.png,img/photos/pruning3.png,img/photos/pruning2.png,Dispersas,Concentradas,"Solo hierba, sin árboles ni arbustos","Solo hierba, sin árboles ni arbustos",Hierba y arbustos podados completamente,Hierba y arbustos podados parcialmente,De 10 a 20 minutos,Menos de 5 minutos,450,400,120,90,,6904d131854900d7f8d26db6,6904d2876ca0d6bb3ac19db1
,,,Chrome,141.0.0.0,,,,,,,html-keyboard-response,16,153215,0.0-12.0-0.2,11,1,2025-10-31 15:15:22,380adedbb17a93fac604e03de424270a,79.117.156.197,"Mozilla/5.0 (Windows NT 10.0; Win64; x64) AppleWebKit/537.36 (KHTML, like Gecko) Chrome/141.0.0.0 Safari/537.36",WebKit,Windows,10.0,https://pmnk2gty5u.cognition.run/?PROLIFIC_PID=603533290576853eefd64ed8&STUDY_ID=6904d131854900d7f8d26db6&SESSION_ID=6904d2876ca0d6bb3ac19db1,"es-ES,es;q=0.9,ca-ES;q=0.8,ca;q=0.7,en;q=0.6",,603533290576853eefd64ed8,sgkLlEIxSWlz,603533290576853eefd64ed8,1920,919,0,33,Sí,Casado/a,Hombre,Apartamento o piso,2 personas,3 niños/as,Formación profesional o técnica,3001€ - 4000€,Trabajo a tiempo completo,,,,,,,null,"<div style=""display: flex; justify-content: center; align-items: center; height: 100vh;"">
        <div class=""loader""></div></div>",null,,,,fixation,,,,,,,,,,,,,,,,,,,,6904d131854900d7f8d26db6,6904d2876ca0d6bb3ac19db1
,,,Chrome,141.0.0.0,,,,,,,html-button-response,17,157633,0.0-12.0-1.2,11,1,2025-10-31 15:15:22,380adedbb17a93fac604e03de424270a,79.117.156.197,"Mozilla/5.0 (Windows NT 10.0; Win64; x64) AppleWebKit/537.36 (KHTML, like Gecko) Chrome/141.0.0.0 Safari/537.36",WebKit,Windows,10.0,https://pmnk2gty5u.cognition.run/?PROLIFIC_PID=603533290576853eefd64ed8&STUDY_ID=6904d131854900d7f8d26db6&SESSION_ID=6904d2876ca0d6bb3ac19db1,"es-ES,es;q=0.9,ca-ES;q=0.8,ca;q=0.7,en;q=0.6",,603533290576853eefd64ed8,sgkLlEIxSWlz,603533290576853eefd64ed8,1920,919,0,33,Sí,Casado/a,Hombre,Apartamento o piso,2 personas,3 niños/as,Formación profesional o técnica,3001€ - 4000€,Trabajo a tiempo completo,,,,,,,4417,,,,,left,choice,img/photos/LSH1.png,img/photos/LSP4.png,img/photos/structure2.png,img/photos/structure5.png,img/photos/pruning3.png,img/photos/pruning3.png,Dispersas,Concentradas,"Árboles diseminados, con hierba y arbustos","Solo hierba, sin árboles ni arbustos",Hierba y arbustos podados completamente,Hierba y arbustos podados completamente,Enfrente de casa,De 10 a 20 minutos,650,750,90,110,,6904d131854900d7f8d26db6,6904d2876ca0d6bb3ac19db1
,,,Chrome,141.0.0.0,,,,,,,html-keyboard-response,18,158035,0.0-12.0-0.3,11,1,2025-10-31 15:15:22,380adedbb17a93fac604e03de424270a,79.117.156.197,"Mozilla/5.0 (Windows NT 10.0; Win64; x64) AppleWebKit/537.36 (KHTML, like Gecko) Chrome/141.0.0.0 Safari/537.36",WebKit,Windows,10.0,https://pmnk2gty5u.cognition.run/?PROLIFIC_PID=603533290576853eefd64ed8&STUDY_ID=6904d131854900d7f8d26db6&SESSION_ID=6904d2876ca0d6bb3ac19db1,"es-ES,es;q=0.9,ca-ES;q=0.8,ca;q=0.7,en;q=0.6",,603533290576853eefd64ed8,sgkLlEIxSWlz,603533290576853eefd64ed8,1920,919,0,33,Sí,Casado/a,Hombre,Apartamento o piso,2 personas,3 niños/as,Formación profesional o técnica,3001€ - 4000€,Trabajo a tiempo completo,,,,,,,null,"<div style=""display: flex; justify-content: center; align-items: center; height: 100vh;"">
        <div class=""loader""></div></div>",null,,,,fixation,,,,,,,,,,,,,,,,,,,,6904d131854900d7f8d26db6,6904d2876ca0d6bb3ac19db1
,,,Chrome,141.0.0.0,,,,,,,html-button-response,19,161497,0.0-12.0-1.3,11,1,2025-10-31 15:15:22,380adedbb17a93fac604e03de424270a,79.117.156.197,"Mozilla/5.0 (Windows NT 10.0; Win64; x64) AppleWebKit/537.36 (KHTML, like Gecko) Chrome/141.0.0.0 Safari/537.36",WebKit,Windows,10.0,https://pmnk2gty5u.cognition.run/?PROLIFIC_PID=603533290576853eefd64ed8&STUDY_ID=6904d131854900d7f8d26db6&SESSION_ID=6904d2876ca0d6bb3ac19db1,"es-ES,es;q=0.9,ca-ES;q=0.8,ca;q=0.7,en;q=0.6",,603533290576853eefd64ed8,sgkLlEIxSWlz,603533290576853eefd64ed8,1920,919,0,33,Sí,Casado/a,Hombre,Apartamento o piso,2 personas,3 niños/as,Formación profesional o técnica,3001€ - 4000€,Trabajo a tiempo completo,,,,,,,3462,,,,,left,choice,img/photos/LSH3.png,img/photos/LSP5.png,img/photos/structure3.png,img/photos/structure5.png,img/photos/pruning1.png,img/photos/pruning2.png,Dispersas,Concentradas,"Algunos árboles, con hierba y arbustos","Solo hierba, sin árboles ni arbustos",Hierba y arbustos sin podar,Hierba y arbustos podados parcialmente,De 5 a 10 minutos,20 minutos o más,525,750,120,50,,6904d131854900d7f8d26db6,6904d2876ca0d6bb3ac19db1
,,,Chrome,141.0.0.0,,,,,,,html-keyboard-response,20,161749,0.0-12.0-0.4,11,1,2025-10-31 15:15:22,380adedbb17a93fac604e03de424270a,79.117.156.197,"Mozilla/5.0 (Windows NT 10.0; Win64; x64) AppleWebKit/537.36 (KHTML, like Gecko) Chrome/141.0.0.0 Safari/537.36",WebKit,Windows,10.0,https://pmnk2gty5u.cognition.run/?PROLIFIC_PID=603533290576853eefd64ed8&STUDY_ID=6904d131854900d7f8d26db6&SESSION_ID=6904d2876ca0d6bb3ac19db1,"es-ES,es;q=0.9,ca-ES;q=0.8,ca;q=0.7,en;q=0.6",,603533290576853eefd64ed8,sgkLlEIxSWlz,603533290576853eefd64ed8,1920,919,0,33,Sí,Casado/a,Hombre,Apartamento o piso,2 personas,3 niños/as,Formación profesional o técnica,3001€ - 4000€,Trabajo a tiempo completo,,,,,,,null,"<div style=""display: flex; justify-content: center; align-items: center; height: 100vh;"">
        <div class=""loader""></div></div>",null,,,,fixation,,,,,,,,,,,,,,,,,,,,6904d131854900d7f8d26db6,6904d2876ca0d6bb3ac19db1
,,,Chrome,141.0.0.0,,,,,,,html-button-response,21,171368,0.0-12.0-1.4,11,1,2025-10-31 15:15:22,380adedbb17a93fac604e03de424270a,79.117.156.197,"Mozilla/5.0 (Windows NT 10.0; Win64; x64) AppleWebKit/537.36 (KHTML, like Gecko) Chrome/141.0.0.0 Safari/537.36",WebKit,Windows,10.0,https://pmnk2gty5u.cognition.run/?PROLIFIC_PID=603533290576853eefd64ed8&STUDY_ID=6904d131854900d7f8d26db6&SESSION_ID=6904d2876ca0d6bb3ac19db1,"es-ES,es;q=0.9,ca-ES;q=0.8,ca;q=0.7,en;q=0.6",,603533290576853eefd64ed8,sgkLlEIxSWlz,603533290576853eefd64ed8,1920,919,0,33,Sí,Casado/a,Hombre,Apartamento o piso,2 personas,3 niños/as,Formación profesional o técnica,3001€ - 4000€,Trabajo a tiempo completo,,,,,,,9619,,,,,left,choice,img/photos/LSH4.png,img/photos/LSP4.png,img/photos/structure5.png,img/photos/structure5.png,img/photos/pruning2.png,img/photos/pruning2.png,Dispersas,Concentradas,"Solo hierba, sin árboles ni arbustos","Solo hierba, sin árboles ni arbustos",Hierba y arbustos podados parcialmente,Hierba y arbustos podados parcialmente,De 10 a 20 minutos,De 10 a 20 minutos,800,775,60,50,,6904d131854900d7f8d26db6,6904d2876ca0d6bb3ac19db1
,,,Chrome,141.0.0.0,,,,,,,html-keyboard-response,22,171771,0.0-12.0-0.5,11,1,2025-10-31 15:15:22,380adedbb17a93fac604e03de424270a,79.117.156.197,"Mozilla/5.0 (Windows NT 10.0; Win64; x64) AppleWebKit/537.36 (KHTML, like Gecko) Chrome/141.0.0.0 Safari/537.36",WebKit,Windows,10.0,https://pmnk2gty5u.cognition.run/?PROLIFIC_PID=603533290576853eefd64ed8&STUDY_ID=6904d131854900d7f8d26db6&SESSION_ID=6904d2876ca0d6bb3ac19db1,"es-ES,es;q=0.9,ca-ES;q=0.8,ca;q=0.7,en;q=0.6",,603533290576853eefd64ed8,sgkLlEIxSWlz,603533290576853eefd64ed8,1920,919,0,33,Sí,Casado/a,Hombre,Apartamento o piso,2 personas,3 niños/as,Formación profesional o técnica,3001€ - 4000€,Trabajo a tiempo completo,,,,,,,null,"<div style=""display: flex; justify-content: center; align-items: center; height: 100vh;"">
        <div class=""loader""></div></div>",null,,,,fixation,,,,,,,,,,,,,,,,,,,,6904d131854900d7f8d26db6,6904d2876ca0d6bb3ac19db1
,,,Chrome,141.0.0.0,,,,,,,html-button-response,23,185425,0.0-12.0-1.5,11,1,2025-10-31 15:15:22,380adedbb17a93fac604e03de424270a,79.117.156.197,"Mozilla/5.0 (Windows NT 10.0; Win64; x64) AppleWebKit/537.36 (KHTML, like Gecko) Chrome/141.0.0.0 Safari/537.36",WebKit,Windows,10.0,https://pmnk2gty5u.cognition.run/?PROLIFIC_PID=603533290576853eefd64ed8&STUDY_ID=6904d131854900d7f8d26db6&SESSION_ID=6904d2876ca0d6bb3ac19db1,"es-ES,es;q=0.9,ca-ES;q=0.8,ca;q=0.7,en;q=0.6",,603533290576853eefd64ed8,sgkLlEIxSWlz,603533290576853eefd64ed8,1920,919,0,33,Sí,Casado/a,Hombre,Apartamento o piso,2 personas,3 niños/as,Formación profesional o técnica,3001€ - 4000€,Trabajo a tiempo completo,,,,,,,13653,,,,,left,choice,img/photos/LSP1.png,img/photos/LSH2.png,img/photos/structure3.png,img/photos/structure1.png,img/photos/pruning1.png,img/photos/pruning1.png,Concentradas,Dispersas,"Algunos árboles, con hierba y arbustos","Muchos árboles, con hierba y arbustos",Hierba y arbustos sin podar,Hierba y arbustos sin podar,Enfrente de casa,Menos de 5 minutos,775,600,120,80,,6904d131854900d7f8d26db6,6904d2876ca0d6bb3ac19db1
,,,Chrome,141.0.0.0,,,,,,,survey-multi-choice,24,188238,0.0-13.0,11,1,2025-10-31 15:15:22,380adedbb17a93fac604e03de424270a,79.117.156.197,"Mozilla/5.0 (Windows NT 10.0; Win64; x64) AppleWebKit/537.36 (KHTML, like Gecko) Chrome/141.0.0.0 Safari/537.36",WebKit,Windows,10.0,https://pmnk2gty5u.cognition.run/?PROLIFIC_PID=603533290576853eefd64ed8&STUDY_ID=6904d131854900d7f8d26db6&SESSION_ID=6904d2876ca0d6bb3ac19db1,"es-ES,es;q=0.9,ca-ES;q=0.8,ca;q=0.7,en;q=0.6",,603533290576853eefd64ed8,sgkLlEIxSWlz,603533290576853eefd64ed8,1920,919,0,33,Sí,Casado/a,Hombre,Apartamento o piso,2 personas,3 niños/as,Formación profesional o técnica,3001€ - 4000€,Trabajo a tiempo completo,,,,,,,2810,,"{""marital_status"":""Casado/a""}",,[0],,,,,,,,,,,,,,,,,,,,,,6904d131854900d7f8d26db6,6904d2876ca0d6bb3ac19db1
,,,Chrome,141.0.0.0,,,,,,,survey-text,25,191003,0.0-14.0-0.0,11,1,2025-10-31 15:15:22,380adedbb17a93fac604e03de424270a,79.117.156.197,"Mozilla/5.0 (Windows NT 10.0; Win64; x64) AppleWebKit/537.36 (KHTML, like Gecko) Chrome/141.0.0.0 Safari/537.36",WebKit,Windows,10.0,https://pmnk2gty5u.cognition.run/?PROLIFIC_PID=603533290576853eefd64ed8&STUDY_ID=6904d131854900d7f8d26db6&SESSION_ID=6904d2876ca0d6bb3ac19db1,"es-ES,es;q=0.9,ca-ES;q=0.8,ca;q=0.7,en;q=0.6",,603533290576853eefd64ed8,sgkLlEIxSWlz,603533290576853eefd64ed8,1920,919,0,33,Sí,Casado/a,Hombre,Apartamento o piso,2 personas,3 niños/as,Formación profesional o técnica,3001€ - 4000€,Trabajo a tiempo completo,,,,,,,2752,,"{""age"":""41""}",,,,,,,,,,,,,,,,,,,,,,,true,6904d131854900d7f8d26db6,6904d2876ca0d6bb3ac19db1
,,,Chrome,141.0.0.0,,,,,,,survey-multi-choice,26,192853,0.0-15.0,11,1,2025-10-31 15:15:22,380adedbb17a93fac604e03de424270a,79.117.156.197,"Mozilla/5.0 (Windows NT 10.0; Win64; x64) AppleWebKit/537.36 (KHTML, like Gecko) Chrome/141.0.0.0 Safari/537.36",WebKit,Windows,10.0,https://pmnk2gty5u.cognition.run/?PROLIFIC_PID=603533290576853eefd64ed8&STUDY_ID=6904d131854900d7f8d26db6&SESSION_ID=6904d2876ca0d6bb3ac19db1,"es-ES,es;q=0.9,ca-ES;q=0.8,ca;q=0.7,en;q=0.6",,603533290576853eefd64ed8,sgkLlEIxSWlz,603533290576853eefd64ed8,1920,919,0,33,Sí,Casado/a,Hombre,Apartamento o piso,2 personas,3 niños/as,Formación profesional o técnica,3001€ - 4000€,Trabajo a tiempo completo,,,,,,,1847,,"{""gender"":""Hombre""}",,[0],,,,,,,,,,,,,,,,,,,,,,6904d131854900d7f8d26db6,6904d2876ca0d6bb3ac19db1
,,,Chrome,141.0.0.0,,,,,,,survey-multi-choice,27,201415,0.0-16.0,11,1,2025-10-31 15:15:22,380adedbb17a93fac604e03de424270a,79.117.156.197,"Mozilla/5.0 (Windows NT 10.0; Win64; x64) AppleWebKit/537.36 (KHTML, like Gecko) Chrome/141.0.0.0 Safari/537.36",WebKit,Windows,10.0,https://pmnk2gty5u.cognition.run/?PROLIFIC_PID=603533290576853eefd64ed8&STUDY_ID=6904d131854900d7f8d26db6&SESSION_ID=6904d2876ca0d6bb3ac19db1,"es-ES,es;q=0.9,ca-ES;q=0.8,ca;q=0.7,en;q=0.6",,603533290576853eefd64ed8,sgkLlEIxSWlz,603533290576853eefd64ed8,1920,919,0,33,Sí,Casado/a,Hombre,Apartamento o piso,2 personas,3 niños/as,Formación profesional o técnica,3001€ - 4000€,Trabajo a tiempo completo,,,,,,,8559,,"{""dwelling"":""Apartamento o piso"",""ownership"":""Propia"",""tamuni"":""Zona urbana (más de 50.000 habitantes)""}",,"[0,1,2]",,,,,,,,,,,,,,,,,,,,,,6904d131854900d7f8d26db6,6904d2876ca0d6bb3ac19db1
,,,Chrome,141.0.0.0,,,,,,,survey-multi-choice,28,207621,0.0-17.0,11,1,2025-10-31 15:15:22,380adedbb17a93fac604e03de424270a,79.117.156.197,"Mozilla/5.0 (Windows NT 10.0; Win64; x64) AppleWebKit/537.36 (KHTML, like Gecko) Chrome/141.0.0.0 Safari/537.36",WebKit,Windows,10.0,https://pmnk2gty5u.cognition.run/?PROLIFIC_PID=603533290576853eefd64ed8&STUDY_ID=6904d131854900d7f8d26db6&SESSION_ID=6904d2876ca0d6bb3ac19db1,"es-ES,es;q=0.9,ca-ES;q=0.8,ca;q=0.7,en;q=0.6",,603533290576853eefd64ed8,sgkLlEIxSWlz,603533290576853eefd64ed8,1920,919,0,33,Sí,Casado/a,Hombre,Apartamento o piso,2 personas,3 niños/as,Formación profesional o técnica,3001€ - 4000€,Trabajo a tiempo completo,,,,,,,6203,,"{""adults"":""2 personas"",""children"":""3 niños/as""}",,"[0,1]",,,,,,,,,,,,,,,,,,,,,,6904d131854900d7f8d26db6,6904d2876ca0d6bb3ac19db1
,,,Chrome,141.0.0.0,,,,,,,survey-multi-choice,29,210950,0.0-18.0,11,1,2025-10-31 15:15:22,380adedbb17a93fac604e03de424270a,79.117.156.197,"Mozilla/5.0 (Windows NT 10.0; Win64; x64) AppleWebKit/537.36 (KHTML, like Gecko) Chrome/141.0.0.0 Safari/537.36",WebKit,Windows,10.0,https://pmnk2gty5u.cognition.run/?PROLIFIC_PID=603533290576853eefd64ed8&STUDY_ID=6904d131854900d7f8d26db6&SESSION_ID=6904d2876ca0d6bb3ac19db1,"es-ES,es;q=0.9,ca-ES;q=0.8,ca;q=0.7,en;q=0.6",,603533290576853eefd64ed8,sgkLlEIxSWlz,603533290576853eefd64ed8,1920,919,0,33,Sí,Casado/a,Hombre,Apartamento o piso,2 personas,3 niños/as,Formación profesional o técnica,3001€ - 4000€,Trabajo a tiempo completo,,,,,,,3328,,"{""education"":""Formación profesional o técnica""}",,[0],,,,,,,,,,,,,,,,,,,,,,6904d131854900d7f8d26db6,6904d2876ca0d6bb3ac19db1
,,,Chrome,141.0.0.0,,,,,,,survey-multi-choice,30,222973,0.0-19.0,11,1,2025-10-31 15:15:22,380adedbb17a93fac604e03de424270a,79.117.156.197,"Mozilla/5.0 (Windows NT 10.0; Win64; x64) AppleWebKit/537.36 (KHTML, like Gecko) Chrome/141.0.0.0 Safari/537.36",WebKit,Windows,10.0,https://pmnk2gty5u.cognition.run/?PROLIFIC_PID=603533290576853eefd64ed8&STUDY_ID=6904d131854900d7f8d26db6&SESSION_ID=6904d2876ca0d6bb3ac19db1,"es-ES,es;q=0.9,ca-ES;q=0.8,ca;q=0.7,en;q=0.6",,603533290576853eefd64ed8,sgkLlEIxSWlz,603533290576853eefd64ed8,1920,919,0,33,Sí,Casado/a,Hombre,Apartamento o piso,2 personas,3 niños/as,Formación profesional o técnica,3001€ - 4000€,Trabajo a tiempo completo,,,,,,,12020,,"{""occupation"":""Trabajo a tiempo completo"",""income"":""3001€ - 4000€""}",,"[0,1]",,,,,,,,,,,,,,,,,,,,,,6904d131854900d7f8d26db6,6904d2876ca0d6bb3ac19db1
,,,Chrome,141.0.0.0,,,,,,,html-slider-response,31,228779,0.0-20.0,11,1,2025-10-31 15:15:22,380adedbb17a93fac604e03de424270a,79.117.156.197,"Mozilla/5.0 (Windows NT 10.0; Win64; x64) AppleWebKit/537.36 (KHTML, like Gecko) Chrome/141.0.0.0 Safari/537.36",WebKit,Windows,10.0,https://pmnk2gty5u.cognition.run/?PROLIFIC_PID=603533290576853eefd64ed8&STUDY_ID=6904d131854900d7f8d26db6&SESSION_ID=6904d2876ca0d6bb3ac19db1,"es-ES,es;q=0.9,ca-ES;q=0.8,ca;q=0.7,en;q=0.6",,603533290576853eefd64ed8,sgkLlEIxSWlz,603533290576853eefd64ed8,1920,919,0,33,Sí,Casado/a,Hombre,Apartamento o piso,2 personas,3 niños/as,Formación profesional o técnica,3001€ - 4000€,Trabajo a tiempo completo,,,,,,,5802,"<div style=""width:500px; text-align:center; margin: 0 auto;"">
        <p>A menudo la gente habla de ""izquierda"" y ""derecha"" para hablar de su orientación política</p>
        <p>Utiliza el siguiente deslizador para indicar dónde te sitúas en este espectro político.</p>
        </div>",49,50,,,,,,,,,,,,,,,,,,,,,,,6904d131854900d7f8d26db6,6904d2876ca0d6bb3ac19db1
,,,Chrome,141.0.0.0,,,,,,,survey-text,32,230499,0.0-21.0,11,1,2025-10-31 15:15:22,380adedbb17a93fac604e03de424270a,79.117.156.197,"Mozilla/5.0 (Windows NT 10.0; Win64; x64) AppleWebKit/537.36 (KHTML, like Gecko) Chrome/141.0.0.0 Safari/537.36",WebKit,Windows,10.0,https://pmnk2gty5u.cognition.run/?PROLIFIC_PID=603533290576853eefd64ed8&STUDY_ID=6904d131854900d7f8d26db6&SESSION_ID=6904d2876ca0d6bb3ac19db1,"es-ES,es;q=0.9,ca-ES;q=0.8,ca;q=0.7,en;q=0.6",,603533290576853eefd64ed8,sgkLlEIxSWlz,603533290576853eefd64ed8,1920,919,0,33,Sí,Casado/a,Hombre,Apartamento o piso,2 personas,3 niños/as,Formación profesional o técnica,3001€ - 4000€,Trabajo a tiempo completo,,,,,,,1716,,"{""remarks"":""""}",,,,,,,,,,,,,,,,,,,,,,,,6904d131854900d7f8d26db6,6904d2876ca0d6bb3ac19db1
,,,Chrome,141.0.0.0,,,,,,,html-button-response,33,234001,0.0-22.0,11,1,2025-10-31 15:15:22,380adedbb17a93fac604e03de424270a,79.117.156.197,"Mozilla/5.0 (Windows NT 10.0; Win64; x64) AppleWebKit/537.36 (KHTML, like Gecko) Chrome/141.0.0.0 Safari/537.36",WebKit,Windows,10.0,https://pmnk2gty5u.cognition.run/?PROLIFIC_PID=603533290576853eefd64ed8&STUDY_ID=6904d131854900d7f8d26db6&SESSION_ID=6904d2876ca0d6bb3ac19db1,"es-ES,es;q=0.9,ca-ES;q=0.8,ca;q=0.7,en;q=0.6",,603533290576853eefd64ed8,sgkLlEIxSWlz,603533290576853eefd64ed8,1920,919,0,33,Sí,Casado/a,Hombre,Apartamento o piso,2 personas,3 niños/as,Formación profesional o técnica,3001€ - 4000€,Trabajo a tiempo completo,,,,,,,3498,"
        <h1>¡Gracias por participar en este experimento!</h1>
        El propósito de este estudio es examinar la importancia de las zonas verdes en la población. 
        Si tienes más preguntas, no dude en contactarnos por correo a jorgesuarez@ugr.es",0,,,,,,,,,,,,,,,,,,,,,,,,6904d131854900d7f8d26db6,6904d2876ca0d6bb3ac19db1
2048,1018,true,Chrome,141.0.0.0,false,Windows 10,true,183.65,true,true,browser-check,0,329,0.0-0.0,2,1,2025-10-31 15:10:24,380adedbb17a93fac604e03de424270a,79.117.35.255,"Mozilla/5.0 (Windows NT 10.0; Win64; x64) AppleWebKit/537.36 (KHTML, like Gecko) Chrome/141.0.0.0 Safari/537.36",WebKit,Windows,10.0,https://pmnk2gty5u.cognition.run/?PROLIFIC_PID=5883a935c0c9a10001df6345&STUDY_ID=6904d131854900d7f8d26db6&SESSION_ID=6904d151c3bd3c1e3e2e4704,"es-ES,es;q=0.9",,5883a935c0c9a10001df6345,UGPa4xQHcfhe,5883a935c0c9a10001df6345,2048,1018,0,48,No estoy seguro/a,Soltero/a,Hombre,Apartamento o piso,3 personas,Ninguna,Grado o diplomatura,2501€ - 3000€,Trabajo a tiempo parcial,,,,,,,,,,,,,,,,,,,,,,,,,,,,,,,,,6904d131854900d7f8d26db6,6904d151c3bd3c1e3e2e4704
,,,Chrome,141.0.0.0,,,,,,,preload,1,803,0.0-1.0,2,1,2025-10-31 15:10:24,380adedbb17a93fac604e03de424270a,79.117.35.255,"Mozilla/5.0 (Windows NT 10.0; Win64; x64) AppleWebKit/537.36 (KHTML, like Gecko) Chrome/141.0.0.0 Safari/537.36",WebKit,Windows,10.0,https://pmnk2gty5u.cognition.run/?PROLIFIC_PID=5883a935c0c9a10001df6345&STUDY_ID=6904d131854900d7f8d26db6&SESSION_ID=6904d151c3bd3c1e3e2e4704,"es-ES,es;q=0.9",,5883a935c0c9a10001df6345,UGPa4xQHcfhe,5883a935c0c9a10001df6345,2048,1018,0,48,No estoy seguro/a,Soltero/a,Hombre,Apartamento o piso,3 personas,Ninguna,Grado o diplomatura,2501€ - 3000€,Trabajo a tiempo parcial,,true,false,[],[],[],,,,,,,,,,,,,,,,,,,,,,,,,,,6904d131854900d7f8d26db6,6904d151c3bd3c1e3e2e4704
,,,Chrome,141.0.0.0,,,,,,,html-button-response,2,15345,0.0-2.0,2,1,2025-10-31 15:10:24,380adedbb17a93fac604e03de424270a,79.117.35.255,"Mozilla/5.0 (Windows NT 10.0; Win64; x64) AppleWebKit/537.36 (KHTML, like Gecko) Chrome/141.0.0.0 Safari/537.36",WebKit,Windows,10.0,https://pmnk2gty5u.cognition.run/?PROLIFIC_PID=5883a935c0c9a10001df6345&STUDY_ID=6904d131854900d7f8d26db6&SESSION_ID=6904d151c3bd3c1e3e2e4704,"es-ES,es;q=0.9",,5883a935c0c9a10001df6345,UGPa4xQHcfhe,5883a935c0c9a10001df6345,2048,1018,0,48,No estoy seguro/a,Soltero/a,Hombre,Apartamento o piso,3 personas,Ninguna,Grado o diplomatura,2501€ - 3000€,Trabajo a tiempo parcial,,,,,,,,,,,,,,,,,,,,,,,,,,,,,,,,,6904d131854900d7f8d26db6,6904d151c3bd3c1e3e2e4704
,,,Chrome,141.0.0.0,,,,,,,html-button-response,3,30216,0.0-3.0,2,1,2025-10-31 15:10:24,380adedbb17a93fac604e03de424270a,79.117.35.255,"Mozilla/5.0 (Windows NT 10.0; Win64; x64) AppleWebKit/537.36 (KHTML, like Gecko) Chrome/141.0.0.0 Safari/537.36",WebKit,Windows,10.0,https://pmnk2gty5u.cognition.run/?PROLIFIC_PID=5883a935c0c9a10001df6345&STUDY_ID=6904d131854900d7f8d26db6&SESSION_ID=6904d151c3bd3c1e3e2e4704,"es-ES,es;q=0.9",,5883a935c0c9a10001df6345,UGPa4xQHcfhe,5883a935c0c9a10001df6345,2048,1018,0,48,No estoy seguro/a,Soltero/a,Hombre,Apartamento o piso,3 personas,Ninguna,Grado o diplomatura,2501€ - 3000€,Trabajo a tiempo parcial,,,,,,,14870,"
    <p>En la imagen de debajo puedes ver una representación de diferentes maneras de sentirse conectado/a con la naturaleza.</p> 
    <p>Si A representa la opción menos conectada con la naturaleza y G la opción más conectada, ¿dónde te situarías tú?</p>
    <div id=""img-container"" style=""text-align: center; height: 60px; margin-top: 20px; margin-bottom:300px;"">
        <img src=""img/SiO.png"" alt=""Connection with nature"" style=""max-height:300px;"">
    </div>
    ",3,,,,,,,,,,,,,,,,,,,,,,,,6904d131854900d7f8d26db6,6904d151c3bd3c1e3e2e4704
,,,Chrome,141.0.0.0,,,,,,,html-slider-response,4,38069,0.0-4.0,2,1,2025-10-31 15:10:24,380adedbb17a93fac604e03de424270a,79.117.35.255,"Mozilla/5.0 (Windows NT 10.0; Win64; x64) AppleWebKit/537.36 (KHTML, like Gecko) Chrome/141.0.0.0 Safari/537.36",WebKit,Windows,10.0,https://pmnk2gty5u.cognition.run/?PROLIFIC_PID=5883a935c0c9a10001df6345&STUDY_ID=6904d131854900d7f8d26db6&SESSION_ID=6904d151c3bd3c1e3e2e4704,"es-ES,es;q=0.9",,5883a935c0c9a10001df6345,UGPa4xQHcfhe,5883a935c0c9a10001df6345,2048,1018,0,48,No estoy seguro/a,Soltero/a,Hombre,Apartamento o piso,3 personas,Ninguna,Grado o diplomatura,2501€ - 3000€,Trabajo a tiempo parcial,,,,,,,7852,"
    <p>Ahora, utiliza el siguiente botón deslizante para indicar <strong>cómo de importante es para ti estar en contacto con la naturaleza en tu vida diaria.</strong></p>
    ",48,50,,,,,,,,,,,,,,,,,,,,,,,6904d131854900d7f8d26db6,6904d151c3bd3c1e3e2e4704
,,,Chrome,141.0.0.0,,,,,,,html-button-response,5,44063,0.0-5.0,2,1,2025-10-31 15:10:24,380adedbb17a93fac604e03de424270a,79.117.35.255,"Mozilla/5.0 (Windows NT 10.0; Win64; x64) AppleWebKit/537.36 (KHTML, like Gecko) Chrome/141.0.0.0 Safari/537.36",WebKit,Windows,10.0,https://pmnk2gty5u.cognition.run/?PROLIFIC_PID=5883a935c0c9a10001df6345&STUDY_ID=6904d131854900d7f8d26db6&SESSION_ID=6904d151c3bd3c1e3e2e4704,"es-ES,es;q=0.9",,5883a935c0c9a10001df6345,UGPa4xQHcfhe,5883a935c0c9a10001df6345,2048,1018,0,48,No estoy seguro/a,Soltero/a,Hombre,Apartamento o piso,3 personas,Ninguna,Grado o diplomatura,2501€ - 3000€,Trabajo a tiempo parcial,,,,,,,5994,"
    <h2>Preferencias sobre el barrio</h2>
    <p>A continuación, encontrarás una serie de afirmaciones relacionadas con las características que valoras en un barrio o zona para vivir.</p>
    <p>Por favor, indica tu grado de acuerdo o desacuerdo con cada una de las siguientes afirmaciones utilizando la escala proporcionada.</p>
    ",0,,,,,,,,,,,,,,,,,,,,,,,,6904d131854900d7f8d26db6,6904d151c3bd3c1e3e2e4704
,,,Chrome,141.0.0.0,,,,,,,survey-likert,6,75156,0.0-6.0,2,1,2025-10-31 15:10:24,380adedbb17a93fac604e03de424270a,79.117.35.255,"Mozilla/5.0 (Windows NT 10.0; Win64; x64) AppleWebKit/537.36 (KHTML, like Gecko) Chrome/141.0.0.0 Safari/537.36",WebKit,Windows,10.0,https://pmnk2gty5u.cognition.run/?PROLIFIC_PID=5883a935c0c9a10001df6345&STUDY_ID=6904d131854900d7f8d26db6&SESSION_ID=6904d151c3bd3c1e3e2e4704,"es-ES,es;q=0.9",,5883a935c0c9a10001df6345,UGPa4xQHcfhe,5883a935c0c9a10001df6345,2048,1018,0,48,No estoy seguro/a,Soltero/a,Hombre,Apartamento o piso,3 personas,Ninguna,Grado o diplomatura,2501€ - 3000€,Trabajo a tiempo parcial,,,,,,,31092,,"{""Q0"":3,""Q6"":4,""Q8"":3,""Q1"":2,""Q2"":2,""Q4"":3,""Q7"":3,""Q3"":3,""Q5"":3}",,"[0,6,8,1,2,4,7,3,5]",,,,,,,,,,,,,,,,,,,,,,6904d131854900d7f8d26db6,6904d151c3bd3c1e3e2e4704
,,,Chrome,141.0.0.0,,,,,,,survey-multi-choice,7,98627,0.0-7.0,2,1,2025-10-31 15:10:24,380adedbb17a93fac604e03de424270a,79.117.35.255,"Mozilla/5.0 (Windows NT 10.0; Win64; x64) AppleWebKit/537.36 (KHTML, like Gecko) Chrome/141.0.0.0 Safari/537.36",WebKit,Windows,10.0,https://pmnk2gty5u.cognition.run/?PROLIFIC_PID=5883a935c0c9a10001df6345&STUDY_ID=6904d131854900d7f8d26db6&SESSION_ID=6904d151c3bd3c1e3e2e4704,"es-ES,es;q=0.9",,5883a935c0c9a10001df6345,UGPa4xQHcfhe,5883a935c0c9a10001df6345,2048,1018,0,48,No estoy seguro/a,Soltero/a,Hombre,Apartamento o piso,3 personas,Ninguna,Grado o diplomatura,2501€ - 3000€,Trabajo a tiempo parcial,,,,,,,23470,,"{""biodiversity_belief"":""No estoy seguro/a""}",,[0],,,,,,,,,,,,,,,,,,,,,,6904d131854900d7f8d26db6,6904d151c3bd3c1e3e2e4704
,,,Chrome,141.0.0.0,,,,,,,html-button-response,8,110296,0.0-8.0,2,1,2025-10-31 15:10:24,380adedbb17a93fac604e03de424270a,79.117.35.255,"Mozilla/5.0 (Windows NT 10.0; Win64; x64) AppleWebKit/537.36 (KHTML, like Gecko) Chrome/141.0.0.0 Safari/537.36",WebKit,Windows,10.0,https://pmnk2gty5u.cognition.run/?PROLIFIC_PID=5883a935c0c9a10001df6345&STUDY_ID=6904d131854900d7f8d26db6&SESSION_ID=6904d151c3bd3c1e3e2e4704,"es-ES,es;q=0.9",,5883a935c0c9a10001df6345,UGPa4xQHcfhe,5883a935c0c9a10001df6345,2048,1018,0,48,No estoy seguro/a,Soltero/a,Hombre,Apartamento o piso,3 personas,Ninguna,Grado o diplomatura,2501€ - 3000€,Trabajo a tiempo parcial,,,,,,,11668,"<h2>Sobre tu respuesta</h2><p>Has indicado que <strong>no estás seguro/a</strong> de si el tipo de vegetación o su manejo tengan un efecto sobre la biodiversidad. <br>Según estudios recientes, sí se ha observado que la biodiversidad aumenta en áreas con mayor cantidad de árboles combinados con arbustos y hierba, y cuanto menos se pode la cobertura herbácea.</p>",0,,,,,,,,,,,,,,,,,,,,,,,,6904d131854900d7f8d26db6,6904d151c3bd3c1e3e2e4704
,,,Chrome,141.0.0.0,,,,,,,survey-likert,9,120161,0.0-9.0,2,1,2025-10-31 15:10:24,380adedbb17a93fac604e03de424270a,79.117.35.255,"Mozilla/5.0 (Windows NT 10.0; Win64; x64) AppleWebKit/537.36 (KHTML, like Gecko) Chrome/141.0.0.0 Safari/537.36",WebKit,Windows,10.0,https://pmnk2gty5u.cognition.run/?PROLIFIC_PID=5883a935c0c9a10001df6345&STUDY_ID=6904d131854900d7f8d26db6&SESSION_ID=6904d151c3bd3c1e3e2e4704,"es-ES,es;q=0.9",,5883a935c0c9a10001df6345,UGPa4xQHcfhe,5883a935c0c9a10001df6345,2048,1018,0,48,No estoy seguro/a,Soltero/a,Hombre,Apartamento o piso,3 personas,Ninguna,Grado o diplomatura,2501€ - 3000€,Trabajo a tiempo parcial,,,,,,,9864,,"{""Q2"":1,""Q1"":2,""Q0"":2}",,"[2,1,0]",,,,,,,,,,,,,,,,,,,,,,6904d131854900d7f8d26db6,6904d151c3bd3c1e3e2e4704
,,,Chrome,141.0.0.0,,,,,,,html-button-response,10,134373,0.0-10.0,2,1,2025-10-31 15:10:24,380adedbb17a93fac604e03de424270a,79.117.35.255,"Mozilla/5.0 (Windows NT 10.0; Win64; x64) AppleWebKit/537.36 (KHTML, like Gecko) Chrome/141.0.0.0 Safari/537.36",WebKit,Windows,10.0,https://pmnk2gty5u.cognition.run/?PROLIFIC_PID=5883a935c0c9a10001df6345&STUDY_ID=6904d131854900d7f8d26db6&SESSION_ID=6904d151c3bd3c1e3e2e4704,"es-ES,es;q=0.9",,5883a935c0c9a10001df6345,UGPa4xQHcfhe,5883a935c0c9a10001df6345,2048,1018,0,48,No estoy seguro/a,Soltero/a,Hombre,Apartamento o piso,3 personas,Ninguna,Grado o diplomatura,2501€ - 3000€,Trabajo a tiempo parcial,,,,,,,,,,,,LSH,,,,,,,,,,,,,,,,,,,,,6904d131854900d7f8d26db6,6904d151c3bd3c1e3e2e4704
,,,Chrome,141.0.0.0,,,,,,,html-button-response,11,143126,0.0-11.0,2,1,2025-10-31 15:10:24,380adedbb17a93fac604e03de424270a,79.117.35.255,"Mozilla/5.0 (Windows NT 10.0; Win64; x64) AppleWebKit/537.36 (KHTML, like Gecko) Chrome/141.0.0.0 Safari/537.36",WebKit,Windows,10.0,https://pmnk2gty5u.cognition.run/?PROLIFIC_PID=5883a935c0c9a10001df6345&STUDY_ID=6904d131854900d7f8d26db6&SESSION_ID=6904d151c3bd3c1e3e2e4704,"es-ES,es;q=0.9",,5883a935c0c9a10001df6345,UGPa4xQHcfhe,5883a935c0c9a10001df6345,2048,1018,0,48,No estoy seguro/a,Soltero/a,Hombre,Apartamento o piso,3 personas,Ninguna,Grado o diplomatura,2501€ - 3000€,Trabajo a tiempo parcial,,,,,,,,,,,,,,,,,,,,,,,,,,,,,,,,,6904d131854900d7f8d26db6,6904d151c3bd3c1e3e2e4704
,,,Chrome,141.0.0.0,,,,,,,html-keyboard-response,12,143528,0.0-12.0-0.0,2,1,2025-10-31 15:10:24,380adedbb17a93fac604e03de424270a,79.117.35.255,"Mozilla/5.0 (Windows NT 10.0; Win64; x64) AppleWebKit/537.36 (KHTML, like Gecko) Chrome/141.0.0.0 Safari/537.36",WebKit,Windows,10.0,https://pmnk2gty5u.cognition.run/?PROLIFIC_PID=5883a935c0c9a10001df6345&STUDY_ID=6904d131854900d7f8d26db6&SESSION_ID=6904d151c3bd3c1e3e2e4704,"es-ES,es;q=0.9",,5883a935c0c9a10001df6345,UGPa4xQHcfhe,5883a935c0c9a10001df6345,2048,1018,0,48,No estoy seguro/a,Soltero/a,Hombre,Apartamento o piso,3 personas,Ninguna,Grado o diplomatura,2501€ - 3000€,Trabajo a tiempo parcial,,,,,,,null,"<div style=""display: flex; justify-content: center; align-items: center; height: 100vh;"">
        <div class=""loader""></div></div>",null,,,,fixation,,,,,,,,,,,,,,,,,,,,6904d131854900d7f8d26db6,6904d151c3bd3c1e3e2e4704
